ax,ay,az,gx,gy,gz
0.000000,0.000000,0.000000,0.000000,0.000000,0.000000
-0.036377,0.006348,-0.924805,29.687023,28.847328,38.053436
-0.040283,0.012207,-0.932129,-5.061069,-0.137405,-0.603053
-0.044678,0.005859,-0.935059,-4.274809,-3.160305,0.068702
-0.035156,0.021973,-0.954834,-4.282443,-2.221374,1.000000
-0.040527,0.009766,-0.953125,-3.732824,-1.007634,0.816794
-0.042969,0.003662,-0.931396,-3.541985,-0.137405,-0.198473
-0.045166,0.015137,-0.937744,-4.877862,-0.450382,0.236641
-0.049072,0.004395,-0.938232,-3.954198,-0.770992,-0.244275
-0.038574,0.013184,-0.961670,-4.564886,1.167939,-0.305344
-0.049561,0.010498,-0.934570,-4.954198,1.267176,-0.152672
-0.047363,-0.000977,-0.940918,-2.396947,0.870229,-0.374046
-0.037842,0.019531,-0.938477,-3.198473,0.977099,-0.061069
-0.047363,0.011230,-0.926270,-5.656488,-1.000000,0.832061
-0.038818,-0.004639,-0.953125,-3.129771,-1.885496,1.610687
-0.044434,0.006104,-0.960938,0.778626,1.603053,1.396947
-0.041016,0.025635,-0.957764,-3.931298,2.213740,1.274809
-0.051270,-0.004883,-0.924805,-6.618320,0.916031,1.908397
-0.047363,-0.010010,-0.936279,-3.656489,-1.061069,0.847328
-0.046387,0.006348,-0.941650,-3.793893,-0.572519,0.763359
-0.043213,0.001953,-0.949219,-5.610687,0.351145,1.358779
-0.046387,-0.028320,-0.922363,-3.488550,3.618321,2.511450
-0.051270,0.001709,-0.940430,-2.870229,0.625954,1.916031
-0.036133,0.002686,-0.941406,-7.015267,1.877863,2.656489
-0.037842,-0.031250,-0.916504,-7.068702,4.488550,4.740458
-0.063721,-0.009521,-0.918945,-0.679389,3.175573,4.259542
-0.029541,0.044922,-0.968750,-0.931298,-0.244275,1.427481
-0.031738,0.013428,-0.957031,-5.167939,1.870229,2.190840
-0.049805,-0.008057,-0.939697,-2.015267,1.267176,1.832061
-0.041260,0.017578,-0.950684,-0.763359,0.839695,1.267176
-0.034180,0.011475,-0.951660,-4.954198,1.259542,2.083969
-0.046143,-0.006104,-0.934570,-3.167939,1.587786,-0.702290
-0.043945,-0.005615,-0.936279,-1.916031,2.007634,-2.374046
-0.041260,-0.016602,-0.956543,-4.977099,3.549618,-2.129771
-0.050537,-0.031738,-0.955078,-7.648855,1.557252,-0.938931
-0.041504,-0.038574,-0.935303,-2.954198,1.091603,-1.587786
-0.017578,-0.000488,-0.959473,-0.717557,-0.435115,-2.557252
-0.025635,-0.006592,-0.924561,-6.770992,1.641221,-1.633588
-0.026855,-0.044434,-0.930908,-6.816794,4.694656,1.114504
-0.043701,-0.016846,-0.947754,-0.557252,3.557252,-0.633588
-0.033447,0.016602,-0.975586,-3.282443,3.671756,-2.603053
-0.030029,-0.009033,-0.927979,-7.396946,3.648855,-3.045802
-0.043701,-0.005859,-0.940430,-3.763359,0.450382,-3.137405
-0.022949,-0.007324,-0.948486,-1.610687,-0.847328,-2.396947
-0.023926,0.018799,-0.938965,-5.412214,0.503817,-0.129771
-0.035156,-0.005371,-0.931152,-8.122137,0.664122,1.389313
-0.032715,-0.012451,-0.964111,-5.977099,1.984733,3.328244
-0.028076,-0.017334,-0.946777,-0.641221,1.534351,2.717557
-0.023682,-0.011963,-0.941650,-1.541985,3.099237,2.137405
-0.038574,0.000977,-0.935791,-6.183206,3.267176,1.625954
-0.033203,-0.014160,-0.948242,-7.717557,3.793893,1.305344
-0.024902,-0.029053,-0.929932,-5.267176,1.480916,-0.290076
-0.029297,-0.007324,-0.920898,-7.641222,-0.320611,-1.122137
-0.038086,-0.008301,-0.948975,-8.641221,-0.625954,-1.412214
-0.029785,0.001221,-0.936523,-6.450382,-1.396947,-1.946565
-0.023193,-0.014893,-0.933105,-3.572519,1.511450,0.320611
-0.008057,-0.016357,-0.934326,-4.656488,-2.908397,-1.259542
-0.028320,-0.002441,-0.948242,-8.664123,-1.740458,-1.503817
-0.031494,-0.020020,-0.957275,-9.832061,3.740458,0.213740
-0.031006,-0.009521,-0.974609,-4.305344,0.366412,-2.198473
-0.034668,0.014648,-0.927979,-1.083969,-0.328244,-2.305344
-0.036865,0.004883,-0.939697,-4.748092,-0.496183,0.580153
-0.031006,-0.018799,-0.949951,-4.732824,-1.977099,1.435115
-0.025879,-0.018311,-0.971680,-4.862596,1.541985,2.083969
-0.035400,-0.018311,-0.938721,-4.496183,3.770992,0.190840
-0.037598,-0.016602,-0.944824,-1.908397,1.282443,-1.870229
-0.026123,-0.020752,-0.933594,-2.122137,0.022901,-2.549618
-0.030762,-0.009277,-0.928223,-4.366412,-1.030534,-2.167939
-0.040771,0.003418,-0.955078,-7.320611,-0.045802,-0.946565
-0.026367,-0.039307,-0.947266,-6.595420,-1.748092,1.916031
-0.030029,-0.011719,-0.965088,-0.290076,-0.740458,0.885496
-0.037354,0.031494,-0.956055,-1.702290,1.267176,0.557252
-0.027100,-0.007080,-0.943604,-5.053435,2.435115,2.389313
-0.041992,0.007080,-0.931152,-4.717557,-2.793893,-2.129771
-0.022217,-0.029541,-0.930176,-5.335878,0.328244,-1.526718
-0.042969,-0.039063,-0.939209,-4.770992,0.503817,-1.564885
-0.051025,-0.011963,-0.911865,-5.000000,-3.328244,-3.343511
-0.026367,-0.000244,-0.950684,-8.549619,-3.961832,-2.778626
0.002197,-0.045898,-0.955566,-6.145038,0.572519,-
-0.040283,-0.052002,-0.986084,-0.358779,1.519084,-2.793893
-0.039063,-0.013184,-0.949219,1.809160,1.152672,-4.778626
-0.035645,-0.008057,-0.916260,-4.961832,1.137405,-3.091603
-0.035156,-0.007813,-0.925781,-9.572519,-2.122137,-1.213740
-0.036865,-0.018066,-0.949219,-8.664123,-3.167939,-0.656489
-0.030762,-0.010254,-0.978271,-6.083970,2.145038,-0.206107
-0.043213,-0.026611,-0.946045,-3.541985,1.748092,0.404580
-0.047852,-0.033203,-0.951172,0.328244,3.091603,-2.839695
-0.033203,-0.042236,-0.941650,-3.862595,2.900763,-2.908397
-0.038330,-0.011230,-0.926025,-6.198473,2.083969,-2.541985
-0.031006,-0.015381,-0.944824,-5.541985,0.946565,-1.389313
-0.032715,-0.009033,-0.935547,-4.702290,0.114504,0.374046
-0.029541,-0.011230,-0.943604,-4.809160,-1.251908,2.061069
-0.041748,-0.024414,-0.963379,-4.938931,0.572519,1.725191
-0.032959,-0.027344,-0.936523,-5.221374,1.351145,0.824427
-0.035645,-0.031494,-0.942383,-3.763359,2.038168,0.175573
-0.038330,-0.027832,-0.921143,-1.572519,0.732824,-0.908397
-0.029297,-0.008545,-0.945313,-5.122138,0.916031,-0.358779
-0.038574,-0.020264,-0.944336,-7.877862,1.007634,1.091603
-0.034180,-0.027344,-0.940918,-5.335878,-0.038168,0.305344
-0.034424,-0.031250,-0.953369,-2.236641,-0.900763,-0.183206
-0.023193,-0.017578,-0.980469,-3.832061,1.435115,0.717557
-0.035889,-0.019287,-0.915039,-7.381680,1.824427,1.549618
-0.039307,-0.030273,-0.955811,-5.763359,0.824427,0.503817
-0.032227,-0.024658,-0.950928,-3.977099,1.320611,-0.442748
-0.033447,-0.027100,-0.947754,-4.977099,2.778626,-0.419847
-0.037598,-0.023438,-0.922607,-3.984733,1.190840,0.053435
-0.032227,-0.016846,-0.934814,-4.236641,1.000000,0.488550
-0.034180,-0.021973,-0.934082,-5.717557,-0.374046,0.572519
-0.038818,-0.020996,-0.942383,-7.083970,0.763359,0.832061
-0.028076,-0.021484,-0.968750,-5.557252,1.656489,0.854962
-0.031250,-0.030762,-0.937012,-2.358779,2.351145,0.274809
-0.029297,-0.018066,-0.941162,-2.496183,1.541985,-0.419847
-0.034424,-0.021484,-0.925293,-6.129771,-0.305344,0.267176
-0.035400,-0.027832,-0.957520,-6.732824,0.786260,0.480916
-0.026123,-0.025146,-0.933350,-5.916030,-0.244275,0.458015
-0.027832,-0.033447,-0.950928,-4.351145,-0.870229,0.000000
-0.036621,-0.022949,-0.929443,-5.335878,1.786260,-0.442748
-0.032715,-0.024658,-0.936279,-5.847328,0.839695,0.145038
-0.034424,-0.021484,-0.946777,-5.175572,0.000000,0.328244
-0.036133,-0.027344,-0.934570,-4.152672,-0.778626,0.541985
-0.026611,-0.017822,-0.948730,-4.343512,0.480916,0.473282
-0.033447,-0.014893,-0.921631,-2.671756,0.717557,0.145038
-0.028809,-0.006592,-0.941650,-2.389313,2.190840,-0.534351
-0.037109,-0.014893,-0.925781,-6.641222,0.595420,0.404580
-0.027588,-0.034180,-0.933350,-7.534351,1.740458,0.160305
-0.023193,-0.025879,-0.981934,-7.312977,1.083969,-0.030534
-0.037109,-0.037354,-0.968018,-6.870229,0.335878,0.801527
-0.026611,-0.031982,-0.953125,-5.297710,0.603053,0.213740
-0.028320,-0.014648,-0.942383,-5.480916,0.000000,0.267176
-0.035156,-0.042969,-0.955566,-4.038168,0.847328,-0.358779
-0.028320,-0.017090,-0.937500,-3.244275,1.259542,-1.290076
-0.030762,-0.009521,-0.930908,-5.961832,0.748092,0.519084
-0.028809,-0.026123,-0.957031,-6.335878,0.587786,0.709924
-0.034424,-0.028564,-0.931885,-5.190840,0.618321,0.320611
-0.032227,-0.017822,-0.938721,-5.335878,-0.687023,0.419847
-0.030518,-0.028564,-0.953369,-5.030534,0.229008,-0.053435
-0.031494,-0.021729,-0.944824,-4.610687,1.351145,-0.389313
-0.031006,-0.020264,-0.951172,-3.709924,1.129771,-0.267176
-0.026123,-0.014160,-0.940918,-4.427481,1.083969,0.030534
-0.031494,-0.023193,-0.937012,-5.809160,0.450382,0.320611
-0.032959,-0.022461,-0.940430,-6.419847,-0.381679,0.190840
-0.034912,-0.025635,-0.938721,-4.389313,-1.137405,-0.076336
-0.033447,-0.020264,-0.942627,-4.793893,-0.931298,-0.091603
-0.031738,-0.026123,-0.947998,-5.763359,-1.000000,0.419847
-0.028076,-0.026367,-0.943848,-4.786260,-0.694656,-0.091603
-0.035156,-0.027588,-0.946777,-6.038168,0.847328,-0.618321
-0.035645,-0.019043,-0.946777,-6.442748,0.519084,-0.450382
-0.034912,-0.028564,-0.960693,-3.702290,0.213740,-0.183206
-0.032715,-0.026855,-0.959961,-3.213740,2.221374,-0.641221
-0.032227,-0.017822,-0.934814,-5.488550,1.763359,-0.335878
-0.040039,-0.022705,-0.937988,-5.473282,-0.053435,-0.022901
-0.032959,-0.019043,-0.944092,-5.106870,-0.030534,-0.038168
-0.034912,-0.020752,-0.935059,-4.732824,-0.106870,0.251908
-0.032471,-0.026855,-0.947998,-4.748092,-0.183206,0.022901
-0.029297,-0.025146,-0.948975,-5.526718,0.717557,-0.061069
-0.036621,-0.018799,-0.949951,-4.541985,1.488550,-0.351145
-0.035400,-0.017822,-0.932617,-4.259542,1.404580,-0.862595
-0.028809,-0.017822,-0.948975,-5.748092,0.358779,-0.503817
-0.037354,-0.028320,-0.954590,-4.793893,0.923664,-0.412214
-0.031006,-0.025635,-0.938477,-2.977099,0.893130,-0.832061
-0.036377,-0.018311,-0.930908,-4.954198,0.015267,0.114504
-0.034668,-0.027832,-0.958008,-5.412214,0.274809,0.015267
-0.029297,-0.028564,-0.950439,-5.366412,1.809160,-0.946565
-0.042969,-0.015381,-0.917725,-4.229008,-1.045802,-0.511450
-0.035156,-0.021973,-0.951904,-3.847328,-2.236641,-0.335878
-0.032227,-0.019287,-0.948975,-4.847328,-1.404580,-0.511450
-0.035645,-0.026367,-0.949219,-4.572519,-0.389313,-0.221374
-0.038574,-0.035645,-0.952393,-2.167939,0.465649,-1.496183
-0.044189,-0.020996,-0.940674,-0.648855,1.389313,-2.145038
-0.025879,-0.017090,-0.942383,-3.916031,2.648855,-0.923664
-0.038086,-0.039063,-0.934326,-5.809160,2.305344,-0.633588
-0.038818,-0.030029,-0.933105,-6.564886,0.450382,-0.824427
-0.030029,-0.026367,-0.953125,-5.961832,0.160305,-0.603053
-0.034180,-0.026123,-0.948975,-4.709924,1.519084,-0.496183
-0.037109,-0.034424,-0.955078,-3.755725,2.221374,-0.496183
-0.032959,-0.030029,-0.937256,-3.786260,1.282443,-0.259542
-0.034668,-0.030762,-0.944336,-5.839694,0.786260,-0.290076
-0.031006,-0.030762,-0.938721,-6.404580,-0.526718,0.160305
-0.039307,-0.033936,-0.945068,-5.190840,0.053435,0.000000
-0.034180,-0.036621,-0.937988,-3.022901,0.541985,-0.519084
-0.033203,-0.024170,-0.957275,-3.145038,0.839695,-0.610687
-0.030762,-0.031494,-0.933105,-5.015267,2.183206,-0.587786
-0.032471,-0.031494,-0.931396,-5.694656,0.969466,-0.587786
-0.029785,-0.029785,-0.938232,-4.496183,0.099237,-0.755725
-0.035645,-0.025146,-0.940186,-4.679389,0.603053,-0.534351
-0.032471,-0.033936,-0.940918,-3.931298,0.190840,-0.374046
-0.025879,-0.033691,-0.959473,-2.358779,1.007634,-1.053435
-0.025146,-0.028809,-0.944092,-3.908397,1.526718,-0.587786
-0.028564,-0.033203,-0.925049,-5.374046,0.923664,0.145038
-0.038330,-0.030762,-0.936768,-5.404580,-0.320611,0.068702
-0.032227,-0.032959,-0.936035,-4.358778,-1.122137,0.091603
-0.027344,-0.025146,-0.968750,-4.687023,-0.221374,-0.282443
-0.035156,-0.029297,-0.933350,-5.839694,0.229008,-0.358779
-0.035156,-0.031982,-0.947021,-4.687023,-0.137405,-0.099237
-0.027100,-0.024414,-0.946289,-3.755725,-0.977099,-0.038168
-0.034668,-0.025146,-0.937744,-5.961832,-0.763359,0.396947
-0.036133,-0.037842,-0.949707,-8.000000,-0.572519,0.679389
-0.027100,-0.038330,-0.978760,-5.129771,1.282443,0.083969
-0.033691,-0.023193,-0.939209,-4.519084,2.061069,0.167939
-0.027100,-0.025391,-0.941162,-5.610687,0.229008,0.572519
-0.034424,-0.037598,-0.955566,-5.557252,1.984733,0.374046
-0.027832,-0.034912,-0.939209,-4.267176,2.335878,-0.122137
-0.030273,-0.038574,-0.948486,-3.381679,1.770992,-0.312977
-0.036621,-0.024902,-0.925537,-4.198473,-0.236641,-0.427481
-0.031006,-0.025146,-0.937744,-5.969466,-1.389313,0.465649
-0.029297,-0.038574,-0.952881,-4.977099,-1.259542,0.366412
-0.034424,-0.039307,-0.961426,-2.297710,-0.832061,-0.450382
-0.036865,-0.026611,-0.944092,-3.664122,1.068702,-0.816794
-0.037109,-0.023682,-0.937500,-3.900763,-0.526718,-0.557252
-0.029785,-0.036133,-0.965576,-2.946565,-0.152672,-0.351145
-0.037598,-0.037842,-0.922363,-2.908397,-0.320611,-0.145038
-0.039307,-0.047852,-0.950439,-0.793893,-2.328244,-0.282443
-0.031982,-0.044434,-0.957520,-0.076336,1.106870,-0.938931
-0.033691,-0.033936,-0.919922,-2.297710,-0.473282,-0.748092
-0.038818,-0.049072,-0.944092,-2.427481,-1.427481,-1.190840
-0.042480,-0.055664,-0.937256,2.526718,-2.022901,-2.473282
-0.031738,-0.035400,-0.952393,1.526718,-0.129771,-2.664122
-0.030029,-0.025879,-0.946289,-1.740458,-0.519084,0.427481
-0.043213,-0.068359,-0.949707,0.328244,-0.106870,0.824427
-0.041748,-0.061035,-0.943115,6.534351,0.198473,-0.412214
-0.030029,-0.098145,-0.964111,12.068703,4.290076,2.786260
-0.022705,-0.065674,-0.976074,12.877863,3.206107,0.175573
-0.036865,-0.062500,-0.886963,3.778626,0.488550,0.297710
-0.043701,-0.077637,-0.923340,1.488550,0.358779,0.442748
-0.048340,-0.096436,-0.931641,5.885496,-0.648855,-0.419847
-0.028809,-0.132813,-0.942383,16.465649,2.274809,1.335878
-0.004395,-0.201416,-0.906738,32.389313,6.503817,1.419847
-0.025879,-0.155029,-0.945557,43.396946,10.564885,4.183206
-0.018555,-0.135986,-0.935547,40.694656,7.763359,4.175572
0.019287,-0.167480,-0.923340,38.381680,7.824428,3.022901
0.018799,-0.230225,-0.896973,49.473282,17.534351,2.862595
0.001221,-0.282959,-0.911865,69.748093,20.854961,3.160305
-0.020020,-0.264648,-0.926025,80.992363,16.969465,2.824427
-0.016846,-0.245361,-0.922119,78.282440,8.083969,5.045802
-0.000488,-0.260010,-0.892822,74.106873,0.992366,1.122137
0.033203,-0.352783,-0.832764,75.389313,4.015267,-0.648855
0.034424,-0.411377,-0.847168,83.793892,10.961832,-4.091603
-0.031982,-0.403076,-0.845703,82.053436,7.213740,-2.030534
-0.028320,-0.451416,-0.834229,74.908394,-3.801527,5.916030
0.074219,-0.523926,-0.799316,82.190842,-4.442748,0.374046
0.030762,-0.555908,-0.805420,93.015266,3.572519,-8.496183
-0.051270,-0.600342,-0.743896,94.282440,0.832061,-4.335878
-0.031982,-0.633545,-0.742188,100.755720,-3.244275,1.786260
0.051758,-0.597412,-0.749268,104.793890,-5.763359,-6.809160
0.001465,-0.627686,-0.684326,95.564888,0.633588,-10.480916
-0.017334,-0.766357,-0.596436,97.229004,0.786260,-2.465649
0.014648,-0.852539,-0.559814,117.923670,-5.816794,-3.625954
0.012695,-0.799561,-0.526123,130.885500,-0.137405,-11.267176
-0.007568,-0.838379,-0.446533,129.015270,0.587786,-4.404580
0.053223,-0.934814,-0.431885,133.335880,9.152672,0.259542
0.070557,-0.953857,-0.422852,137.412220,0.320611,-14.091603
-0.003662,-0.873047,-0.333252,132.763350,1.137405,-17.236641
-0.038086,-0.875244,-0.250488,119.251910,-0.816794,-1.809160
0.036133,-0.913574,-0.248047,107.465650,-2.625954,1.984733
0.020264,-0.873047,-0.243164,93.984734,-8.885496,-14.534351
0.028076,-0.921631,-0.177979,71.854965,-11.526717,-9.374045
0.041748,-1.001709,-0.030273,70.167938,-4.267176,3.091603
0.109619,-1.087158,-0.099609,81.809158,7.801527,12.732824
-0.080811,-0.847412,-0.068359,67.526718,-17.030535,-9.145039
0.061035,-0.919189,-0.056641,29.572519,-17.083969,-1.687023
0.038086,-1.002441,0.024902,4.961832,-0.938931,12.152672
0.001221,-1.046875,0.041992,4.763359,-0.633588,15.549619
0.021729,-1.011230,0.035889,11.847328,-7.717557,3.893130
0.039307,-0.963623,0.040039,3.778626,-6.526718,-0.648855
0.045654,-0.958984,0.069336,-7.129771,2.503817,0.809160
0.030029,-1.011475,0.067627,-8.740458,6.633588,1.595420
0.043213,-0.999023,0.063721,-7.160306,1.320611,-0.603053
0.031738,-0.947266,0.019043,-17.160305,4.335878,-2.030534
-0.009277,-1.000977,0.044922,-26.557251,2.900763,5.167939
0.043457,-1.093994,0.074951,-7.236641,3.198473,3.816794
0.028320,-0.995361,0.025879,7.221374,-0.404580,-4.603054
-0.004395,-0.919922,-0.004395,-8.557252,-1.687023,-0.992366
0.011475,-0.993896,0.026123,-23.251909,-1.664122,8.259542
0.066406,-1.096680,0.063477,-6.770992,5.694656,3.885496
-0.014404,-0.994873,0.014404,10.770992,3.557252,-7.007634
0.019043,-0.929443,-0.021973,1.778626,-2.419847,-5.625954
0.021729,-0.951416,0.023438,-14.305344,0.419847,1.534351
0.019531,-1.011230,0.031250,-17.480917,3.770992,4.534351
0.019287,-1.032471,0.035400,-9.793893,0.893130,2.007634
0.028809,-1.019043,0.041260,-0.251908,1.236641,-2.603053
0.048096,-1.027588,0.036377,3.832061,2.877863,-6.343512
0.002197,-0.939697,0.024902,-8.167939,3.274809,-2.648855
-0.008545,-0.938232,0.004639,-27.030535,-0.648855,5.030534
0.037354,-1.022705,0.043701,-32.320610,1.541985,8.320611
0.052979,-1.079590,0.055420,-10.236641,7.229008,-0.396947
0.000488,-1.024658,0.005371,9.572519,6.648855,-7.679389
-0.011230,-0.941162,-0.018555,5.534351,-1.977099,-4.709924
0.019775,-0.970703,-0.001709,-7.961832,-2.648855,3.916031
0.043457,-1.017822,0.033936,-5.076336,3.656489,3.305344
-0.001221,-0.982178,0.005859,1.137405,1.297710,-1.114504
0.021484,-0.955322,0.007324,-1.129771,0.236641,-1.694656
0.001465,-0.941162,0.000488,-8.587787,1.305344,-0.931298
0.021240,-0.981934,0.016846,-11.679389,0.633588,2.129771
0.027588,-1.008057,0.020996,-6.557252,1.221374,1.206107
0.015381,-0.966309,0.010742,-4.030534,0.396947,-0.824427
0.017334,-0.927979,-0.001709,-11.083969,-1.251908,-0.610687
0.025879,-0.946533,0.024170,-20.679390,0.534351,2.717557
0.041748,-1.009277,0.020996,-17.572519,3.435115,0.648855
0.028564,-1.030762,0.006836,-8.167939,3.061069,-3.404580
0.030273,-1.036133,0.008301,2.564885,4.458015,-5.885496
0.011719,-0.986572,-0.023682,3.557252,1.786260,-4.305344
0.004150,-0.957520,-0.028320,-7.022901,-2.534351,1.274809
0.041260,-1.004150,0.010742,-11.015267,-1.938931,3.473282
0.051758,-1.029053,0.022461,-2.854962,3.389313,-0.877863
0.009033,-0.966064,0.004150,-0.969466,2.343511,-1.595420
0.015869,-0.975830,-0.006592,-8.816793,0.213740,1.534351
0.033691,-1.005127,0.016846,-8.061069,1.923664,1.954198
0.034668,-1.001953,0.015625,-1.152672,3.778626,-0.885496
0.003418,-0.951172,-0.012939,-3.977099,2.442748,-1.977099
0.014648,-0.971191,-0.002930,-9.786260,-0.488550,0.725191
0.038330,-0.993408,0.013184,-6.068702,1.320611,0.030534
0.032471,-1.007568,0.008301,0.473282,3.801527,-2.610687
0.008301,-0.973145,-0.007324,-1.083969,1.969466,-2.465649
0.020752,-0.961426,-0.014648,-8.977099,0.045802,-0.167939
0.040283,-1.010742,0.003418,-10.076336,1.396947,0.435115
0.038086,-1.030029,0.018311,-1.137405,3.297710,-2.076336
0.023682,-0.984619,0.000488,0.160305,1.809160,-1.877863
0.021729,-0.973877,-0.008301,-5.335878,1.816794,-0.809160
0.029785,-0.994385,0.016846,-6.809160,2.862595,0.435115
0.032227,-0.999512,-0.002197,-3.427481,2.145038,-1.099237
0.018066,-0.986572,-0.008057,-3.473282,2.167939,-1.618321
0.004639,-0.981934,0.009766,-5.435114,1.343511,-1.122137
0.026855,-0.988770,0.001221,-8.152672,0.587786,0.022901
0.034668,-1.002686,0.002441,-7.343512,0.786260,1.122137
0.042236,-1.001221,0.016846,-1.519084,0.045802,-0.519084
0.032715,-0.973877,0.000488,-3.770992,-0.580153,-0.366412
0.032471,-0.977783,0.002930,-8.267176,1.625954,-0.061069
0.024658,-0.998047,-0.005371,-6.603054,1.610687,-0.687023
0.019043,-0.986572,-0.003662,-4.076336,0.923664,-1.328244
0.011475,-0.968018,-0.016846,-7.206107,-0.328244,0.198473
0.026855,-1.004883,0.004639,-6.793893,-2.160305,0.786260
0.042969,-0.999756,0.016113,-1.946565,-2.259542,-0.312977
0.048584,-0.972412,0.007568,-1.847328,1.625954,-2.992366
0.008545,-0.966553,-0.001465,-10.786260,-0.312977,-0.450382
0.050537,-1.035400,0.026367,-8.267176,0.816794,0.335878
0.036377,-1.023193,0.025146,2.198473,3.503817,-1.465649
0.004150,-0.952393,-0.007080,0.045802,0.145038,-0.534351
0.025879,-0.955566,-0.004395,-9.770992,-0.671756,1.007634
0.032227,-0.994629,0.019775,-10.038168,1.167939,0.625954
0.047607,-1.004883,0.006104,-4.427481,2.190840,-1.671756
0.029297,-0.982178,-0.020752,-6.427481,0.763359,-1.641221
0.025879,-0.991455,0.009521,-8.923664,-0.137405,-0.496183
0.038574,-1.001465,0.009033,-4.488550,-0.702290,-0.885496
0.036377,-0.983887,0.007568,-2.946565,1.419847,-0.770992
0.022461,-0.974609,-0.009521,-5.129771,1.778626,-0.847328
0.018555,-0.975098,-0.012207,-7.885496,0.114504,-0.450382
0.038574,-1.004150,0.000244,-7.053435,1.335878,-0.732824
0.038330,-1.013184,0.009521,-2.480916,1.770992,-0.732824
0.024414,-0.977295,-0.015381,-3.396947,0.007634,-0.320611
0.022461,-0.979004,-0.011230,-7.290076,0.167939,0.587786
0.032227,-0.992920,0.005127,-7.541985,-0.427481,0.473282
0.037598,-1.012451,0.004639,-2.931298,1.709924,-1.022901
0.022949,-0.979004,-0.006836,-3.335878,1.251908,-0.274809
0.017578,-0.954590,-0.012451,-8.900764,-1.030534,1.511450
0.036377,-0.963135,0.004883,-10.977099,-0.763359,-0.068702
0.048828,-1.009277,0.009766,-7.351145,1.312977,-1.702290
0.039795,-1.014404,0.011475,-0.778626,2.954198,-3.068702
0.014404,-0.966797,-0.014160,-1.564885,0.091603,-1.977099
0.027100,-0.968506,-0.016846,-9.656488,-0.007634,0.190840
0.016357,-0.997803,-0.002686,-10.251908,-0.091603,-0.099237
0.035400,-1.020508,0.007080,-3.007634,-0.229008,-0.793893
0.039551,-0.978760,-0.000732,-0.877863,-0.076336,-1.221374
0.037354,-0.962646,-0.009521,-5.923664,0.931298,-2.320611
0.033447,-0.992432,-0.006836,-10.740458,1.290076,-0.122137
0.027832,-1.017822,-0.011230,-6.038168,0.671756,-0.167939
0.038086,-0.994629,-0.009766,-0.854962,0.519084,0.038168
0.014160,-0.951172,-0.024902,-3.847328,-1.122137,-0.145038
0.042480,-0.973145,-0.012207,-8.221375,-2.595420,-0.221374
0.050781,-0.988770,0.002197,-6.488550,0.763359,-1.190840
0.044678,-0.990723,-0.012939,-3.099237,1.801527,-2.053435
0.029297,-0.978027,-0.030518,-5.381680,-0.854962,-0.862595
0.026123,-1.001221,-0.003662,-6.809160,-0.946565,0.343511
0.031250,-0.989014,0.004883,-3.091603,-1.977099,-0.175573
0.076904,-1.000244,0.002441,-0.786260,1.946565,-2.786260
0.038818,-0.994141,-0.002441,-3.244275,3.152672,-1.488550
0.043457,-1.000000,-0.010498,-8.694656,0.229008,1.557252
0.052246,-1.012939,-0.011963,-7.534351,1.503817,0.641221
0.043701,-1.004395,0.011230,-3.503817,1.145038,0.839695
0.052490,-0.977051,-0.010742,-1.786260,0.977099,-0.847328
0.047852,-0.962158,-0.010254,-5.709924,0.580153,0.099237
0.056152,-0.979004,0.003418,-6.198473,2.885496,-0.305344
0.022217,-0.976563,-0.017334,-5.412214,2.664122,-0.908397
0.033936,-0.973877,-0.020752,-6.862596,0.458015,-0.038168
0.044434,-0.982910,-0.004883,-6.580153,0.870229,-0.030534
0.045898,-0.996582,-0.006348,-3.732824,0.984733,-1.122137
0.047363,-0.998535,-0.001709,-2.274809,1.541985,-0.992366
0.024414,-0.977295,-0.012695,-4.519084,0.038168,0.458015
0.044189,-0.982422,-0.008301,-6.343512,-0.770992,0.625954
0.047607,-1.001953,0.002441,-3.427481,1.740458,-0.343511
0.030762,-0.998291,-0.000732,-1.793893,2.053435,-0.022901
0.040527,-1.002686,-0.008301,-1.633588,0.175573,1.801527
0.038574,-1.001221,0.008301,1.526718,-0.106870,2.961832
-0.001953,-0.989502,0.019043,6.809160,-5.305344,7.145038
0.076660,-1.019531,0.030029,14.923664,-5.473282,6.290076
0.093994,-1.019043,0.066406,26.137405,2.045802,-1.358779
0.060791,-1.063477,0.130859,41.129772,6.221374,-3.992366
0.092529,-1.122314,0.154785,74.366409,12.984733,-5.480916
0.020020,-1.007568,0.145752,99.839691,10.572519,-13.022901
0.047852,-0.916992,0.162109,106.564890,4.061069,-11.938931
0.104736,-0.968262,0.270508,108.832060,13.282443,-13.633588
0.071777,-1.011230,0.360840,130.603060,28.450382,-14.648855
0.021240,-1.013672,0.363281,152.549620,31.022902,-11.732824
-0.065430,-0.963379,0.406006,166.404590,15.534351,3.938931
0.044678,-0.937500,0.485596,183.152660,2.175573,6.358778
0.064697,-0.902100,0.530518,192.251910,11.572519,3.312977
0.012207,-0.873291,0.624023,195.068700,12.694656,-0.435115
0.033447,-0.857910,0.683350,202.771000,4.778626,0.328244
0.109863,-0.746826,0.805908,216.312970,8.442748,2.526718
0.083984,-0.702393,0.775879,208.557250,23.977098,-15.946565
-0.080811,-0.591309,0.861816,184.282440,12.358779,-7.572519
-0.023193,-0.569336,0.937012,171.824430,11.282443,16.580153
0.013916,-0.455566,0.975342,174.053440,16.374046,9.137404
-0.043701,-0.327148,1.002930,173.007630,-2.129771,-6.603054
0.054688,-0.183350,0.997559,146.091600,5.885496,-4.458015
-0.002686,-0.124512,1.029785,109.534350,16.656488,-1.496183
-0.030518,-0.083740,1.068604,77.816795,5.908397,3.045802
0.112549,-0.125732,1.129639,68.938934,11.923664,9.664123
0.067383,-0.071045,1.136963,65.969467,25.236641,0.000000
-0.138916,0.046875,1.063721,44.603054,18.793894,8.465649
-0.112061,0.035889,1.060791,25.610687,2.580153,21.992367
-0.005371,-0.020752,1.071045,22.755726,0.755725,15.793893
0.012451,-0.026367,1.073730,36.152672,-0.320611,5.473282
-0.043945,0.086426,1.006592,36.473282,-9.015267,3.267176
-0.019287,0.085938,0.979248,10.740458,-14.816793,10.702291
0.017822,-0.030273,1.032471,4.557252,-9.190840,16.832062
0.027588,0.011719,1.023193,14.145039,-13.633588,14.015267
0.008789,0.091797,1.016357,8.679389,-20.145039,11.885496
0.045166,0.021973,1.062012,-5.725191,-16.236641,19.770992
0.051514,0.013428,1.014893,-14.786260,3.961832,25.198473
-0.016846,0.018311,1.080566,-16.503817,7.824428,10.854961
-0.068604,0.072510,1.087158,-12.519084,-13.793893,3.923664
0.058350,0.049561,1.110840,-8.564885,-21.030535,5.725191
0.130615,0.045410,1.092285,-9.274809,-3.236641,-3.885496
-0.010010,0.040527,1.122803,-17.541985,7.022901,-0.916031
0.009766,0.021240,1.143555,-17.923664,0.297710,6.908397
0.078613,-0.025391,1.147705,-9.053435,-5.099236,4.213740
0.088135,-0.016113,1.124756,1.160305,3.335878,2.641221
-0.002441,0.034180,1.074463,-4.374046,7.511450,3.480916
-0.063232,0.067871,1.084229,-11.259542,-0.320611,5.091603
0.084229,-0.002930,1.116455,-3.419847,-7.305344,7.625954
0.082764,0.043457,1.086670,1.229008,-1.580153,-3.809160
0.019287,0.063721,1.081055,-5.106870,1.305344,-4.687023
0.008057,0.041260,1.073486,-9.083969,0.763359,0.061069
0.059326,0.016113,1.112549,-2.877863,0.511450,2.259542
0.036133,0.060791,1.088135,1.572519,1.755725,-6.885496
-0.010010,0.061768,1.062988,-4.801527,0.885496,-4.442748
0.001221,0.059814,1.079102,-12.687023,-1.580153,3.839695
0.080078,0.015381,1.094238,-12.076336,0.587786,3.496183
0.060059,0.013184,1.097656,-5.694656,2.503817,0.183206
0.009277,0.044189,1.089111,-3.656489,-0.106870,-1.030534
-0.010742,0.064453,1.083984,-10.648855,-2.671756,1.954198
0.048584,0.020020,1.123535,-14.007633,-4.038168,5.251908
0.096680,-0.007080,1.143555,-8.519084,2.847328,-0.251908
0.027832,0.018066,1.118164,-8.625955,7.137404,-0.694656
0.008057,0.016113,1.095459,-10.267176,4.885496,2.274809
0.011963,0.015381,1.090820,-7.938931,3.717557,1.870229
0.028564,0.023926,1.084229,-5.633588,1.175573,-1.503817
0.035400,0.017822,1.086182,-6.091603,-1.503817,-2.038168
0.045410,0.011475,1.084473,-6.908397,1.519084,-0.992366
0.019531,0.030518,1.072266,-10.137404,1.984733,0.572519
0.034668,0.010010,1.087891,-11.404580,1.114504,0.618321
0.023438,0.022949,1.088867,-10.381680,-1.778626,-1.450382
0.052490,-0.037354,1.122314,-10.366412,2.061069,1.190840
0.032471,-0.021484,1.121826,-4.633588,6.083970,3.671756
-0.006104,0.018311,1.088379,-5.312977,2.786260,2.175573
0.001709,0.026367,1.092041,-10.671756,0.145038,1.038168
0.028320,-0.002930,1.082764,-12.633588,1.358779,-0.450382
0.018066,-0.026611,1.093994,-8.267176,-2.435115,2.221374
0.040771,0.007813,1.095703,-5.427481,-1.740458,3.625954
0.020508,0.020996,1.078857,-10.381680,-0.633588,1.832061
0.039795,-0.019043,1.102295,-9.870229,-1.534351,1.664122
0.045166,-0.001465,1.093506,-9.473283,2.625954,1.557252
0.036377,-0.018066,1.093750,-11.503817,2.229008,0.183206
0.022461,-0.021973,1.092285,-10.816793,-0.641221,0.625954
0.042969,-0.011719,1.109863,-8.450381,-1.206107,-0.580153
0.035156,-0.030518,1.092773,-9.961832,4.916030,-0.206107
0.010254,-0.027832,1.094482,-12.129771,6.244275,2.206107
0.001709,-0.035889,1.090088,-11.396947,0.442748,1.900763
0.036133,-0.041016,1.097900,-9.236641,1.038168,1.312977
0.017822,-0.036133,1.092285,-8.503817,1.244275,2.038168
0.016846,-0.031738,1.081543,-8.580153,0.083969,3.465649
0.015869,-0.033691,1.111572,-4.511450,-3.122137,1.305344
0.032715,-0.022949,1.107422,-1.778626,-1.984733,-0.076336
0.031494,-0.023682,1.095947,-4.259542,0.274809,-0.358779
0.029785,-0.034180,1.102783,-5.145038,-0.801527,0.145038
0.034912,-0.039795,1.105225,-6.122138,0.748092,0.519084
0.028564,-0.035645,1.095459,-7.488550,2.160305,1.931298
0.036621,-0.037598,1.104736,-6.717557,1.885496,2.290076
0.020752,-0.032959,1.094727,-6.458015,1.267176,2.122137
0.009766,-0.030518,1.083252,-8.854961,0.809160,4.503817
0.035889,-0.045410,1.100098,-8.129771,2.305344,4.183206
0.020020,-0.028076,1.095703,-4.145038,-0.656489,2.274809
0.032471,-0.022461,1.101563,-0.007634,-1.938931,-1.992366
0.099365,-0.012939,1.092285,-2.229008,1.465649,-9.381680
0.034912,-0.019775,1.085449,-7.526718,3.595420,-1.030534
0.023682,-0.045654,1.106689,-7.030534,5.244275,-0.198473
0.000732,-0.044922,1.070801,-4.282443,3.389313,-2.396947
-0.012939,-0.063965,1.078857,-3.442748,-0.801527,0.862595
0.016357,-0.059082,1.095459,-1.748092,-4.160306,4.679389
0.047119,-0.039063,1.085693,0.320611,-2.580153,1.885496
0.027588,0.000488,1.099609,-0.961832,-0.694656,-2.664122
0.016357,-0.017090,1.077881,-4.824428,-1.877863,-0.916031
0.035645,-0.036133,1.110107,-6.251908,0.473282,2.618321
0.035400,-0.024902,1.095947,-7.259542,4.763359,2.000000
0.017334,-0.019287,1.096680,-7.847328,4.198473,1.656489
0.024170,-0.038330,1.088867,-6.061069,1.038168,-1.099237
0.015869,-0.026855,1.093506,-3.893130,-1.099237,-0.366412
0.042480,-0.019775,1.095703,-2.526718,-2.648855,0.183206
0.031250,-0.015381,1.097900,-3.755725,-2.129771,-0.839695
0.034180,-0.040039,1.085205,-4.404580,-2.305344,-0.763359
0.011475,-0.038574,1.107666,-5.099236,-2.847328,0.061069
0.020508,-0.022705,1.112549,-2.404580,-5.145038,0.847328
0.034668,-0.014893,1.085449,-1.015267,-4.885496,0.198473
0.044189,-0.040039,1.081543,-2.068702,-2.725191,0.282443
0.017090,-0.027100,1.095459,-0.396947,-0.954198,-0.404580
0.048096,-0.012939,1.104004,2.786260,-1.641221,-1.305344
0.035645,-0.003418,1.088623,1.969466,-4.152672,-1.351145
0.040039,-0.017334,1.095459,-0.870229,-3.198473,0.175573
0.046387,-0.018311,1.092285,-4.854962,-0.412214,1.839695
0.041016,-0.010010,1.100098,-7.358778,-0.175573,1.312977
0.042725,-0.010010,1.096436,-7.091603,-0.381679,-0.259542
0.032959,-0.018555,1.102051,-6.427481,-3.511450,-0.847328
0.038086,0.006348,1.115723,-7.427481,-4.351145,-0.328244
0.041748,-0.022217,1.093262,-9.610687,-1.908397,0.183206
0.024414,-0.006592,1.095947,-11.061069,-0.801527,4.900764
0.034912,0.007568,1.115967,-12.419847,-6.717557,5.748092
0.036621,-0.028564,1.116455,-12.244275,-11.068703,2.702290
0.063721,-0.036865,1.096924,-10.870229,-15.496183,1.343511
0.092285,-0.058105,1.070313,-5.954198,-7.167939,1.473282
0.054199,-0.020264,1.105469,-4.503817,-0.335878,4.778626
0.044189,0.008057,1.145020,-2.778626,3.473282,0.984733
0.080566,0.018555,1.123291,-3.358779,-7.099236,-3.465649
0.095215,-0.026855,1.128906,1.290076,-8.305344,-6.190840
0.100342,-0.046387,1.087402,8.328244,0.282443,-3.770992
0.072266,-0.050781,1.073975,6.312977,5.480916,1.274809
0.051514,-0.022705,1.083740,-3.297710,5.038168,5.465649
0.048340,0.012451,1.103760,-8.229008,5.351145,-13.893129
0.080078,-0.006348,1.107910,-5.137404,14.076336,-30.305344
0.092529,-0.031250,1.104980,-0.206107,20.099237,-28.977098
0.074707,0.010254,1.104980,5.801527,25.061069,-10.503817
0.044678,0.034180,1.129883,9.656488,13.923664,4.572519
0.035400,-0.024658,1.099609,10.007633,6.633588,2.748092
0.035400,-0.025635,1.091797,18.740458,15.770992,-6.786260
0.010742,0.000000,1.084473,21.022902,18.931297,-7.748092
-0.005127,0.010742,1.058594,15.015267,11.396947,-1.748092
0.018311,0.008789,1.071777,7.458015,0.068702,2.229008
0.051514,0.010010,1.078125,10.496183,0.664122,3.977099
0.025146,0.022461,1.063477,11.374045,6.351145,6.671756
0.005859,0.030273,1.071777,7.656488,4.175572,9.549619
0.009766,0.063965,1.084961,3.786260,-3.198473,11.480916
0.005127,0.066162,1.099854,5.916030,-7.030534,12.007633
0.016357,0.072021,1.092773,9.839695,-4.755725,6.969466
0.010498,0.103271,1.116211,18.656488,-2.977099,3.374046
0.002197,0.137939,1.110596,15.488549,-5.786260,3.969466
0.006348,0.130371,1.104980,7.847328,-8.351145,4.893130
0.031006,0.122559,1.133789,20.053434,-6.732824,0.458015
0.052490,0.123047,1.155029,44.000000,-3.335878,-9.488549
0.041748,0.151367,1.118652,55.954197,9.809160,-9.244275
0.012451,0.171143,1.073486,59.824429,7.045802,-3.503817
0.019531,0.161865,1.067871,65.297707,7.740458,-0.412214
0.032471,0.199707,1.085449,76.580154,9.366412,-2.656489
0.044678,0.237305,1.094238,87.885498,14.114504,-5.229008
0.034668,0.306641,1.064209,103.404580,24.297710,-1.396947
-0.009766,0.335938,1.043945,108.755720,25.786259,3.778626
-0.013428,0.390869,1.066162,109.870230,19.908398,6.541985
-0.058594,0.543701,1.049316,97.725189,12.458015,4.587786
-0.023682,0.533203,0.997070,88.793892,18.183207,-1.809160
-0.034180,0.490967,0.929932,95.106873,26.183207,0.496183
-0.063477,0.537598,0.882324,103.603050,21.213741,10.839695
-0.107178,0.648682,0.888184,111.229000,-2.160305,12.908397
-0.085205,0.726074,0.823975,109.824420,-22.007633,12.572519
-0.052246,0.664063,0.751465,117.381680,-17.885496,14.297709
-0.022705,0.663574,0.737549,120.771000,-11.580153,19.732824
0.006348,0.846924,0.738281,117.679390,-18.061069,26.305344
-0.006836,0.883789,0.673096,103.160310,-26.312977,22.038168
0.008301,0.776611,0.605225,99.427483,-19.763359,17.015266
0.010498,0.761963,0.574463,102.893130,-9.267176,16.458015
0.056641,0.902344,0.559570,100.259540,-11.267176,15.740458
0.070557,0.959229,0.548584,90.442749,-15.648855,10.236641
0.070801,0.906250,0.459473,84.442749,-12.412213,4.534351
0.084961,0.865723,0.429688,89.847328,-2.206107,3.305344
0.064697,0.916748,0.382568,86.236641,0.809160,1.496183
0.085449,1.005371,0.351318,77.068703,-4.809160,0.198473
0.073486,1.016846,0.270264,61.045803,-3.114504,2.374046
0.081299,0.992676,0.246338,50.083969,0.442748,2.786260
0.061523,1.000244,0.228760,38.801525,0.129771,3.496183
0.050293,1.000488,0.203369,26.946566,-3.519084,5.633588
0.059570,0.981934,0.206055,23.030535,-6.389313,4.618320
0.083008,0.972168,0.202393,25.870230,-4.236641,4.732824
0.085449,1.025879,0.168213,26.244274,-0.938931,4.908397
0.079590,1.052002,0.171631,25.068703,-5.977099,4.580153
0.098633,1.020508,0.127441,19.038168,-11.809160,5.732824
0.104980,1.014404,0.144531,17.099237,-8.114504,7.221374
0.092285,1.010010,0.142090,20.206106,-1.633588,6.053435
0.063477,1.021240,0.130127,19.099237,-5.778626,6.732824
0.088623,1.007813,0.113770,9.114504,-11.419847,8.129771
0.149170,1.020996,0.140625,13.167939,-2.251908,2.519084
0.116699,1.004883,0.125000,18.992367,7.167939,-0.366412
0.085449,1.011475,0.092041,9.259542,6.076336,-2.427481
0.084961,1.011475,0.081055,1.160305,5.832061,-2.297710
0.033936,0.950928,0.078613,2.374046,6.877862,-0.366412
0.176025,1.098633,0.102783,7.961832,3.633588,2.885496
0.079102,1.032471,0.073730,4.900764,2.198473,-0.740458
0.066895,1.017090,0.067871,-3.648855,3.152672,1.358779
0.098145,1.027588,0.063965,-9.061069,2.244275,2.534351
0.102539,1.013672,0.082520,-5.916030,2.351145,1.450382
0.097168,0.995850,0.069336,-5.679389,0.274809,0.343511
0.099365,1.014160,0.074951,-8.473283,-0.526718,2.931298
0.107666,1.021729,0.091553,-7.786260,-1.572519,2.702290
0.128418,1.000977,0.089844,-5.992366,-0.969466,1.206107
0.111328,1.010254,0.083740,-4.106870,1.366412,0.847328
0.111328,1.018555,0.087891,-4.977099,-0.160305,-0.083969
0.104004,1.021240,0.090820,-6.213740,-2.114504,-0.351145
0.107666,1.008301,0.094727,-6.694656,-0.908397,-0.671756
0.098633,0.996338,0.096680,-5.160306,3.587786,-0.923664
0.100098,1.009277,0.091553,-3.977099,2.877863,0.152672
0.105957,1.019775,0.083984,-5.335878,0.145038,1.435115
0.110596,1.017334,0.096191,-7.625954,-3.000000,1.229008
0.111328,1.017578,0.095215,-5.419847,0.923664,1.656489
0.105957,1.016602,0.071045,-4.770992,3.145038,1.541985
0.106934,1.014160,0.087402,-4.870229,0.839695,2.122137
0.107422,1.021240,0.081543,-6.122138,-1.259542,2.763359
0.116699,1.012451,0.085693,-5.916030,-0.633588,1.175573
0.113770,1.016602,0.095215,-6.305344,-1.496183,1.244275
0.120361,1.015381,0.106201,-5.458015,-0.473282,0.885496
0.114258,1.009277,0.077637,-4.290076,4.175572,-0.396947
0.107666,1.015137,0.084229,-6.374046,2.664122,0.045802
0.114502,1.017822,0.102295,-7.702290,-2.648855,1.312977
0.113037,0.994873,0.095703,-4.511450,0.786260,1.305344
0.118408,1.015381,0.089111,-3.145038,2.389313,0.801527
0.112305,1.015869,0.090088,-6.458015,-1.526718,1.396947
0.119873,1.002441,0.091553,-5.389313,-2.664122,1.045802
0.115723,1.005615,0.095215,-2.145038,-1.236641,0.763359
0.102783,1.014404,0.090820,-2.755725,-1.053435,-0.129771
0.115479,1.009033,0.098145,-4.129771,0.412214,0.045802
0.122070,1.015625,0.087891,-1.488550,1.877863,0.450382
0.111328,1.009033,0.091309,-0.290076,0.496183,0.312977
0.125000,1.030518,0.087402,-3.847328,-2.450382,-0.129771
0.125000,1.010010,0.090332,-4.465649,0.610687,-0.381679
0.103027,0.993164,0.090820,-3.015267,3.473282,0.419847
0.113525,1.008301,0.089844,-2.473282,2.877863,0.129771
0.114746,1.026611,0.075928,-4.679389,0.435115,-1.053435
0.127197,1.012695,0.075195,-2.816794,1.106870,-1.343511
0.104980,1.008545,0.078369,-2.320611,2.068702,-0.183206
0.108887,1.021729,0.056641,-6.427481,0.969466,-0.412214
0.116699,1.020020,0.076904,-6.465649,0.137405,0.083969
0.123047,1.009521,0.081299,-5.809160,-2.206107,0.725191
0.124023,1.021729,0.085693,-4.106870,-0.351145,0.000000
0.112793,1.015625,0.087158,-4.511450,0.557252,-0.824427
0.118164,1.010742,0.073730,-4.862596,0.625954,-0.603053
0.102539,1.017822,0.084229,-4.251908,-1.519084,0.618321
0.121094,1.019775,0.083496,-4.465649,-2.312977,-0.099237
0.119385,1.008789,0.079834,-1.908397,0.427481,-0.870229
0.104248,1.001953,0.070557,-3.946565,0.770992,-0.396947
0.109375,1.017822,0.071533,-6.000000,0.832061,-0.061069
0.126221,1.014893,0.079834,-5.251908,1.496183,0.198473
0.120605,1.013428,0.074463,-3.748092,1.977099,-0.717557
0.107422,1.012939,0.067383,-4.526718,0.610687,-0.885496
0.107910,1.009277,0.068604,-4.183206,-2.351145,0.267176
0.119873,1.004639,0.079590,-5.320611,-3.076336,0.847328
0.113770,1.005615,0.075439,-4.656488,-1.358779,0.259542
0.123535,1.023438,0.082031,-3.946565,-1.007634,0.038168
0.113525,1.015137,0.072510,-4.877862,0.541985,-0.061069
0.107422,1.015869,0.076172,-5.091603,-0.572519,0.038168
0.117188,1.020020,0.090576,-3.526718,-1.290076,0.465649
0.122803,1.012451,0.072266,-2.389313,0.916031,0.244275
0.120605,1.025391,0.078857,-2.687023,0.488550,-1.343511
0.106445,1.011475,0.071533,-5.526718,-2.572519,-1.450382
0.125732,1.010986,0.069580,-6.198473,-1.167939,0.312977
0.114990,1.008789,0.080811,-4.045802,3.000000,-0.167939
0.103516,0.999268,0.074219,-4.366412,0.908397,-0.603053
0.109375,1.008545,0.062988,-3.870229,-1.328244,-0.267176
0.108398,1.013184,0.075439,-5.519084,-2.419847,0.213740
0.112061,1.010986,0.080322,-5.450382,-0.725191,-0.320611
0.118408,1.021973,0.075195,-2.534351,2.198473,-0.870229
0.100342,1.020508,0.076416,-3.725191,0.068702,-0.419847
0.107422,1.012207,0.080566,-4.938931,-2.877863,-0.351145
0.126465,1.011719,0.075928,-3.053435,-1.923664,-1.160305
0.123291,1.010498,0.062012,-1.923664,0.870229,-1.137405
0.113281,1.014648,0.065918,-3.870229,0.030534,-1.175573
0.107910,1.005615,0.067627,-4.160306,-0.312977,-0.465649
0.109863,1.008545,0.069092,-3.893130,-0.160305,-0.526718
0.109863,1.020020,0.066650,-2.877863,-0.809160,-0.030534
0.120605,1.025391,0.062256,-4.053435,-1.824427,0.030534
0.119385,1.017334,0.065918,-4.816794,-0.404580,-0.312977
0.102783,1.005859,0.059814,-4.503817,1.343511,-0.961832
0.100830,1.006348,0.053955,-5.511450,-1.458015,-0.725191
0.122803,1.015625,0.063965,-4.954198,-1.885496,0.053435
0.128906,1.027100,0.059814,-4.801527,-0.022901,-0.717557
0.113037,1.013184,0.071289,-3.106870,1.992366,-2.038168
0.100830,1.011963,0.060547,-3.061069,0.282443,-2.557252
0.097656,1.008057,0.057373,-6.564886,-1.946565,-2.503817
0.106689,1.003906,0.057129,-6.770992,-0.175573,-2.251908
0.115723,1.018311,0.069580,-3.916031,1.633588,-2.175573
0.104492,1.016846,0.055176,-4.740458,0.183206,-1.396947
0.087891,1.012451,0.056885,-6.358778,-1.427481,-0.938931
0.100342,1.009033,0.076904,-7.778626,-2.503817,-0.610687
0.120361,1.010254,0.058838,-4.152672,1.412214,-1.679389
0.110352,1.021729,0.069092,-2.335878,1.709924,-2.366412
0.090820,1.022705,0.062500,-2.923664,0.648855,-1.900763
0.109863,1.008789,0.066406,-4.832061,0.694656,-0.717557
0.108154,1.030273,0.060059,-2.725191,3.587786,-1.358779
0.093506,1.000977,0.059082,-3.786260,2.106870,-1.267176
0.084717,1.001953,0.043457,-2.763359,-0.870229,-0.603053
0.092285,1.015137,0.049561,-2.832061,-0.908397,0.175573
0.110352,1.027832,0.055908,-4.435114,1.175573,1.122137
0.099854,1.025879,0.059326,-5.786260,0.221374,0.480916
0.095459,1.007324,0.056396,-5.679389,0.137405,-0.908397
0.099121,1.018066,0.063721,-3.923664,0.328244,-0.717557
0.110352,1.018799,0.055176,-3.877863,0.587786,0.183206
0.116699,1.019531,0.063232,-3.534351,1.290076,-0.541985
0.100586,1.005127,0.052979,-3.816794,-0.099237,-1.625954
0.095459,1.008789,0.053955,-3.984733,0.404580,-0.404580
0.098877,1.011230,0.045654,-4.625954,1.832061,-0.396947
0.094971,1.015137,0.051758,-6.099236,1.015267,-1.267176
0.102539,1.019043,0.055176,-5.282443,0.083969,-0.717557
0.102051,1.012939,0.060547,-3.725191,-0.022901,-1.213740
0.097900,1.020264,0.060303,-5.488550,-0.923664,-2.106870
0.098389,1.010986,0.051758,-4.122138,-0.480916,-2.671756
0.088135,1.005371,0.053955,-4.480916,0.580153,-3.290076
0.098633,1.017334,0.056152,-5.954198,0.007634,-2.916031
0.096680,1.008789,0.061035,-5.206107,1.038168,-3.251908
0.082764,1.009277,0.053955,-3.450382,3.022901,-2.511450
0.079590,1.005859,0.060791,-5.877862,-0.503817,-1.351145
0.092285,1.013428,0.061035,-7.160306,-2.374046,-0.778626
0.093994,1.020264,0.052734,-6.717557,-0.129771,-0.282443
0.086914,1.015137,0.050293,-7.396946,2.229008,-0.801527
0.092285,1.026855,0.059326,-8.343512,1.770992,-0.916031
0.090332,1.016602,0.057373,-7.427481,-0.435115,-0.931298
0.087646,1.012695,0.054688,-5.229008,-1.396947,-1.381679
0.091797,1.025391,0.063232,-4.893130,-1.740458,-1.221374
0.091064,1.022217,0.055176,-5.374046,-1.396947,-0.877863
0.082764,1.008545,0.063721,-4.946565,-0.954198,-0.503817
0.068604,1.010498,0.056152,-7.061069,-4.129771,0.824427
0.097900,1.018066,0.061279,-9.694656,-5.351145,1.358779
0.094238,1.014404,0.075439,-8.122137,-2.488550,0.053435
0.090820,1.012207,0.064209,-7.969466,-1.633588,-1.480916
0.088135,1.019775,0.067627,-7.213740,0.740458,-1.763359
0.087158,1.022461,0.067383,-7.770992,-0.992366,-0.862595
0.091797,1.008301,0.062744,-5.717557,-0.534351,-0.129771
0.087646,1.018555,0.065430,-4.832061,-0.961832,-0.328244
0.090820,1.014160,0.066650,-4.603054,-0.946565,-0.412214
0.099121,1.017578,0.072754,-4.923664,0.442748,-0.267176
0.082764,1.013184,0.066895,-4.893130,1.458015,-1.000000
0.075684,1.008057,0.072021,-6.641222,-0.442748,-0.946565
0.075928,1.007324,0.073486,-7.793893,-0.076336,-0.122137
0.089111,1.016602,0.074707,-7.167939,1.740458,0.381679
0.081299,1.017090,0.061768,-6.618320,2.725191,-0.381679
0.085449,1.017578,0.063965,-6.732824,0.603053,-0.564885
0.082520,1.013672,0.075195,-7.351145,-0.900763,-0.320611
0.081299,1.021240,0.074951,-5.946565,-0.206107,0.366412
0.083740,1.021729,0.069580,-5.511450,0.778626,0.801527
0.083252,1.024170,0.068115,-6.725191,-0.572519,1.061069
0.077881,1.003662,0.076904,-7.908397,-2.190840,0.610687
0.080078,0.995605,0.080078,-7.427481,-1.442748,1.198473
0.103271,1.026123,0.077148,-6.404580,0.183206,1.473282
0.088867,1.023682,0.079102,-5.572519,-0.656489,0.183206
0.082520,1.012939,0.071777,-5.847328,0.213740,0.511450
0.079834,1.014893,0.083008,-5.015267,2.450382,0.312977
0.085449,1.017578,0.085205,-5.801527,-0.679389,-0.488550
0.093750,1.019043,0.083008,-5.618320,-0.916031,-0.404580
0.093506,1.013672,0.077637,-4.290076,1.786260,-0.847328
0.081299,1.014160,0.075928,-4.358778,1.931298,-0.610687
0.078369,1.011719,0.083252,-5.908397,-1.374046,0.732824
0.084961,1.006104,0.082275,-4.664122,-0.488550,0.748092
0.087646,1.017090,0.076660,-3.801527,2.458015,0.343511
0.090332,1.014648,0.073730,-6.610687,-0.038168,0.267176
0.089355,1.013428,0.067139,-6.748092,-0.770992,0.114504
0.086670,1.010986,0.076172,-5.801527,-0.061069,-0.198473
0.086914,1.020752,0.081543,-4.282443,0.305344,0.312977
0.079102,1.020020,0.086914,-5.213740,-0.778626,1.717557
0.087158,1.019043,0.089111,-4.328244,-1.099237,1.488550
0.093750,1.025635,0.082031,-3.923664,-1.381679,0.992366
0.092773,1.012695,0.081543,-4.312977,-1.183206,0.335878
0.089600,1.013916,0.074463,-2.969466,0.610687,0.763359
0.080078,1.011719,0.074463,-4.099236,0.511450,0.824427
0.095459,1.017090,0.081787,-4.396946,0.358779,0.633588
0.089355,1.015381,0.075439,-4.847328,0.770992,1.114504
0.079590,1.026611,0.063721,-8.076336,-0.442748,2.267176
0.085205,1.010742,0.079346,-10.297709,-2.381679,3.274809
0.087402,1.007813,0.074707,-8.122137,-4.717557,3.358779
0.108887,1.022461,0.080566,-8.160305,-5.083970,2.954198
0.112793,1.037598,0.071533,-7.167939,-1.129771,3.656489
0.097900,1.026367,0.071289,-7.351145,0.916031,3.274809
0.099365,1.010986,0.082764,-6.709924,-1.427481,3.801527
0.090332,1.013916,0.089600,-9.557252,-4.022901,2.412214
0.104004,1.015137,0.094727,-9.312977,-2.541985,0.992366
0.097168,0.980713,0.093750,-4.641222,2.740458,1.290076
0.090820,0.991943,0.087158,-1.465649,2.603053,1.458015
0.096191,1.017090,0.094971,1.053435,-3.717557,2.183206
0.112793,1.007813,0.097900,5.641222,-7.442748,0.221374
0.112549,1.031250,0.094727,7.358778,-7.549618,0.412214
0.110352,0.996338,0.088135,13.488549,-4.396946,-1.053435
0.097900,0.978271,0.065186,21.832062,-1.946565,1.190840
0.090332,0.988525,0.054688,23.877863,-2.816794,1.893130
0.137451,1.000244,0.033203,34.152672,-0.190840,6.122138
0.118652,1.022949,0.028809,44.412212,2.129771,6.664122
0.120117,1.006104,-0.011719,40.618320,-0.664122,2.267176
0.119629,0.970947,-0.021973,37.854961,0.458015,3.534351
0.160156,1.010498,-0.025635,46.854961,7.366412,5.251908
0.186035,1.054199,-0.054932,58.145039,17.534351,0.809160
0.157227,1.022217,-0.084961,63.000000,26.305344,-6.259542
0.118408,1.017090,-0.111084,61.221375,29.496183,-7.496183
0.124268,1.020996,-0.127441,60.145039,30.236641,-11.961832
0.143555,0.992676,-0.166260,69.923668,35.633587,-15.343512
0.099854,0.956299,-0.200684,77.900764,35.625954,-15.908397
0.099854,0.938477,-0.254639,84.595421,29.503817,-14.000000
0.150879,0.927979,-0.292480,94.763359,23.564886,-14.381680
0.123047,0.919678,-0.327393,104.885500,11.404580,-17.206106
0.098389,0.864990,-0.417236,100.961830,3.358779,-23.145039
0.031250,0.826660,-0.458008,96.198471,-5.267176,-20.961832
0.031738,0.796143,-0.476807,95.694656,-14.404580,-7.427481
0.079834,0.769043,-0.467529,86.717560,-25.282442,-6.221374
0.050293,0.756836,-0.606201,85.213737,-29.702290,-7.832061
0.038818,0.659668,-0.573242,89.122139,-25.610687,-5.435114
0.019043,0.674316,-0.603027,79.862595,-25.343512,13.351145
0.055176,0.671631,-0.651123,79.274811,-18.290077,20.778625
0.092773,0.671875,-0.681641,86.488548,-10.229008,21.900763
0.031982,0.624756,-0.723877,95.328247,-13.282443,25.076336
0.054688,0.601807,-0.726563,100.534350,-24.198473,22.129770
0.107910,0.570801,-0.778320,112.145030,-15.496183,23.053434
0.102783,0.538086,-0.824951,122.389310,4.954198,24.511450
-0.021729,0.529297,-0.891602,99.992363,-6.938931,31.229008
0.038086,0.548340,-0.898193,73.854965,-30.793894,14.839695
0.041992,0.505371,-0.870361,55.916031,-30.503817,1.465649
0.002686,0.427002,-0.801758,42.412212,-30.801527,0.122137
0.060547,0.373779,-0.785889,36.000000,-15.946565,-10.900764
0.060547,0.327637,-0.839844,51.702290,21.328245,-24.358778
-0.018555,0.256592,-0.906738,77.694656,27.671755,-20.641222
-0.077881,0.275146,-0.986572,70.557251,-5.709924,-6.282443
0.154053,0.288818,-0.993896,55.961834,-18.458015,-2.877863
0.216797,0.240479,-1.052979,58.488548,-7.580153,-7.114504
-0.049805,0.219727,-1.011719,35.984734,-33.717556,0.916031
0.059082,0.146240,-0.926025,27.335878,-40.007633,2.236641
0.134521,0.086426,-0.959717,72.351143,13.786260,-1.099237
-0.241455,0.102051,-1.077881,89.679390,-2.480916,-1.137405
-0.226563,0.135010,-1.002441,33.282444,-79.167938,-0.374046
-0.006836,0.107422,-0.830078,0.152672,-59.564884,-10.221375
-0.035645,0.083008,-0.886475,19.480917,29.801527,-18.259542
-0.139893,0.050781,-1.041992,2.030534,18.389313,-4.083970
-0.044678,0.027588,-0.954346,-10.076336,-13.778625,2.297710
-0.050293,0.017822,-0.869873,6.625954,-0.526718,2.503817
-0.038330,0.031250,-0.892334,24.465649,14.816793,7.175572
-0.076416,0.049805,-0.969482,33.458015,13.793893,12.473283
-0.071289,0.033203,-0.982422,26.030535,-0.862595,9.335877
0.048584,0.019287,-0.932617,23.778625,-0.572519,6.641222
-0.040283,0.005371,-0.954590,21.091602,5.206107,7.038168
-0.035889,0.043213,-0.962402,8.282443,8.656488,11.030535
-0.002930,0.030762,-0.927734,-4.114504,6.763359,5.022901
-0.006592,-0.008057,-0.939453,-5.938931,18.122137,-0.221374
-0.029053,-0.005615,-0.939209,-4.320611,12.618320,-2.687023
-0.045410,0.035889,-0.930664,-3.923664,4.122138,-6.427481
0.001953,0.030518,-0.947998,-3.022901,19.786259,-9.458015
-0.019043,-0.043457,-0.960205,-11.267176,10.083969,-18.167938
-0.025635,-0.020264,-1.001221,-14.366412,2.671756,-12.610687
-0.004883,-0.027832,-0.949219,-11.763359,-0.809160,-6.083970
-0.005371,0.004883,-0.932129,-6.954198,3.297710,-4.954198
0.007324,-0.009277,-0.963867,-7.778626,7.198473,-3.923664
-0.000977,-0.012207,-0.948242,-9.908397,2.259542,-2.992366
-0.009277,0.017578,-0.912354,-16.519083,-3.755725,-2.717557
-0.001221,0.006348,-0.919922,-16.870230,10.022901,-6.480916
-0.004395,0.030762,-0.941650,-15.435115,12.297709,-10.015267
-0.017334,0.040527,-0.954346,-18.221375,6.564886,-12.755725
-0.004150,0.035889,-0.949951,-22.213741,5.854962,-14.251908
0.010254,0.025146,-0.951416,-20.908398,7.778626,-13.389313
0.017822,0.034424,-0.972412,-16.755726,6.885496,-9.931297
0.001953,0.022461,-0.966064,-14.091603,1.862595,-8.076336
0.010742,0.033936,-0.949707,-10.343512,-2.801527,-4.946565
0.018066,0.066895,-0.946777,-4.290076,-4.473282,-1.167939
0.024170,0.075439,-0.866699,-0.022901,1.381679,-0.343511
-0.020264,0.019043,-0.943604,-1.427481,2.519084,0.984733
0.012207,0.047119,-0.945557,-2.236641,1.740458,2.366412
0.014404,0.052246,-0.934326,-0.992366,3.770992,3.366412
0.013672,0.073730,-0.936035,-1.587786,4.389313,1.801527
0.012695,0.068604,-0.964355,-5.496183,2.305344,-3.229008
0.034912,0.047119,-0.943115,-6.236641,-0.412214,-5.030534
0.010498,0.034180,-0.950439,-2.305344,2.244275,-2.091603
0.001221,0.045166,-0.953857,0.198473,0.267176,0.763359
0.008301,0.043213,-0.936035,2.534351,-0.419847,0.267176
0.042725,0.045654,-0.928955,2.755725,3.435115,1.015267
0.000977,0.030762,-0.958984,-2.091603,2.374046,3.458015
0.034912,0.045654,-0.934082,-2.694656,1.091603,2.435115
0.020264,0.022217,-0.940674,-0.458015,2.022901,0.267176
0.016357,0.046387,-0.963867,-1.419847,1.687023,-0.015267
0.036865,0.072266,-0.876465,-4.541985,-1.229008,-4.000000
0.012451,0.017090,-0.916992,-3.931298,-0.519084,-0.404580
0.011475,0.036133,-0.953369,-2.618321,-0.137405,0.083969
0.006348,0.029541,-0.948975,-2.412214,0.839695,1.091603
0.022461,0.016602,-0.944824,-3.961832,0.312977,0.595420
0.014404,0.032715,-0.954590,-4.198473,1.160305,0.549618
0.034424,-0.044922,-0.959229,-5.717557,2.335878,1.183206
0.024170,0.014404,-0.942383,-4.572519,2.938931,0.183206
0.022217,0.018555,-0.948242,-5.137404,2.236641,-0.557252
0.017578,0.038574,-0.969238,-7.534351,2.396947,-0.145038
0.019043,0.020752,-0.949463,-11.213740,0.877863,-0.916031
0.017090,0.027588,-0.941162,-8.656488,1.129771,-0.824427
0.022217,0.042969,-0.962646,-8.832061,1.496183,-0.083969
0.016846,0.033691,-0.949463,-11.389313,-0.312977,-0.343511
0.018066,0.026855,-0.942627,-9.900764,1.152672,-0.167939
0.018311,0.039795,-0.949219,-4.641222,3.229008,0.190840
0.016357,0.037354,-0.942627,-4.694656,2.175573,0.282443
0.020508,0.037109,-0.938477,-3.847328,1.305344,0.328244
0.019531,0.044678,-0.955811,-4.167939,1.366412,0.969466
0.023682,0.028564,-0.945068,-5.702290,0.664122,1.198473
0.021729,0.032471,-0.954590,-4.549618,0.748092,0.236641
0.025146,0.035645,-0.951660,-4.358778,1.412214,0.160305
0.021240,0.033691,-0.944336,-5.641222,0.580153,0.198473
0.028076,0.036377,-0.948486,-5.862596,0.450382,0.007634
0.023682,0.037109,-0.953613,-4.702290,0.862595,-0.366412
0.019531,0.032471,-0.932617,-5.122138,0.083969,-0.412214
0.024414,0.035645,-0.945557,-4.885496,-0.832061,-0.290076
0.024170,0.038574,-0.953857,-5.022901,-0.564885,0.030534
0.024902,0.031250,-0.945801,-4.900764,-0.145038,-0.419847
0.020508,0.041992,-0.962891,-5.206107,0.664122,-0.099237
0.019531,0.036377,-0.958496,-4.152672,1.435115,0.152672
0.020996,0.037354,-0.957764,-5.755725,2.083969,-0.297710
0.025391,0.045654,-0.941162,-6.259542,3.320611,-0.076336
-0.004883,0.062744,-0.951416,-5.419847,2.137405,-0.236641
0.020996,0.031738,-0.930908,-4.206107,1.648855,-0.129771
0.025879,0.031738,-0.929688,-5.473282,0.885496,0.045802
0.025146,0.032471,-0.933594,-5.755725,-0.473282,-0.129771
0.024902,0.038086,-0.950684,-3.763359,-0.465649,-0.175573
0.019531,0.036865,-0.952637,-4.564886,0.687023,0.343511
0.021240,0.032959,-0.946777,-6.244275,0.000000,0.297710
0.027100,0.034180,-0.944336,-4.938931,-0.137405,-0.396947
0.020996,0.039063,-0.948975,-3.847328,0.282443,-0.244275
0.029053,0.031738,-0.953613,-3.931298,0.610687,-0.137405
0.021484,0.034668,-0.946777,-5.778626,-0.648855,-0.160305
0.016113,0.040283,-0.950928,-4.679389,-0.068702,-0.045802
0.024414,0.030273,-0.953613,-4.877862,0.419847,0.297710
0.015869,0.032715,-0.954346,-4.992366,1.366412,-0.145038
0.018555,0.034180,-0.952393,-5.511450,1.648855,-0.122137
0.026123,0.036377,-0.949219,-5.679389,1.664122,0.366412
0.027588,0.006104,-0.951416,-3.206107,3.366412,-0.335878
0.026611,0.035645,-0.948730,-4.244275,1.916031,-0.129771
0.020020,0.031738,-0.939209,-5.473282,0.824427,-0.022901
0.022949,0.032471,-0.943115,-6.030534,0.251908,-0.160305
0.031494,0.030029,-0.951416,-4.068702,1.587786,-0.251908
0.020020,0.041260,-0.944336,-4.183206,1.763359,-0.129771
0.018555,0.028809,-0.940674,-5.671756,0.068702,0.122137
0.026123,0.032715,-0.947754,-4.923664,-0.045802,-0.083969
0.023438,0.034912,-0.964355,-4.465649,1.458015,0.061069
0.012695,0.031738,-0.974365,-5.160306,1.694656,0.160305
0.032715,0.024902,-0.938232,-5.000000,0.664122,-0.221374
0.029785,0.040771,-0.938721,-4.778626,0.473282,0.045802
0.027832,0.033691,-0.947510,-4.809160,1.030534,0.305344
0.020752,0.028320,-0.951172,-3.358779,1.496183,-0.099237
0.022949,0.034668,-0.954834,-3.969466,0.648855,0.061069
0.024170,0.029053,-0.950195,-5.870229,0.343511,-0.053435
0.028320,0.029297,-0.956299,-4.580153,1.366412,-0.236641
0.029053,0.032959,-0.929199,-4.137404,1.274809,-0.251908
0.022217,0.038330,-0.942383,-5.274809,0.152672,0.137405
0.025391,0.033447,-0.945801,-5.458015,-0.541985,-0.022901
0.022705,0.030518,-0.964111,-5.549618,0.167939,0.076336
0.025879,0.037109,-0.963379,-4.641222,2.389313,-0.022901
0.047363,0.029785,-0.925537,-5.183206,3.175573,-0.015267
0.026123,0.033691,-0.949707,-5.198473,2.229008,0.114504
0.030029,0.030518,-0.939453,-5.000000,1.381679,0.099237
0.029785,0.033936,-0.958984,-4.435114,2.343511,-0.129771
0.028320,0.025146,-0.944092,-4.633588,3.282443,0.022901
0.029297,0.031494,-0.924805,-5.557252,1.442748,0.038168
0.038086,0.030029,-0.944824,-4.770992,0.992366,0.038168
0.025635,0.030762,-0.944580,-4.702290,0.282443,-0.175573
0.030273,0.035156,-0.953613,-4.648855,1.152672,-0.145038
0.037598,0.032471,-0.948730,-5.488550,1.900763,0.122137
0.034668,0.030273,-0.943115,-4.977099,2.427481,0.297710
0.029785,0.026123,-0.939697,-3.656489,2.503817,0.022901
0.046875,-0.013184,-0.967773,-0.496183,2.351145,-0.267176
0.027588,0.029053,-0.930420,-5.137404,-0.290076,-0.236641
0.033691,0.028809,-0.954346,-4.816794,0.290076,-0.167939
0.036621,0.020508,-0.947998,-4.755725,2.015267,-0.259542
0.000000,0.000000,0.000000,0.000000,0.000000,0.000000
0.031250,0.001953,1.098389,29.137405,27.923664,38.595421
0.038086,0.003906,1.100586,-5.587786,-0.053435,0.557252
0.030273,0.009033,1.102051,-5.916030,1.000000,0.183206
0.037354,0.005859,1.098145,-6.503817,2.740458,-0.664122
0.019043,0.016357,1.097412,-7.526718,0.610687,-0.862595
0.023926,0.011230,1.104492,-7.580153,0.015267,-0.732824
0.040527,-0.005859,1.094482,-5.053435,-2.206107,-1.038168
0.032715,0.000977,1.100098,-3.625954,-0.419847,-0.381679
0.024170,0.004150,1.098877,-4.740458,-1.106870,0.503817
0.032227,-0.005615,1.090820,-6.038168,-0.687023,0.427481
0.041016,-0.010010,1.104980,-6.251908,-0.832061,-1.160305
0.043701,-0.005371,1.092041,-5.900764,0.137405,-2.328244
0.042236,0.000244,1.096191,-7.603054,-1.694656,-1.641221
0.043213,0.009277,1.107666,-7.442748,0.083969,-0.473282
0.037598,-0.000977,1.104248,-5.259542,3.137405,-0.839695
0.031006,-0.002197,1.098145,-4.427481,0.496183,-1.702290
0.041992,-0.003418,1.076904,-5.832061,-0.954198,-1.099237
0.038086,0.002930,1.076904,-6.625954,0.305344,-0.595420
0.034668,0.002930,1.083496,-3.832061,0.473282,-0.541985
0.029053,-0.010010,1.096191,-2.977099,-2.167939,-0.190840
0.060547,-0.016602,1.053467,-4.244275,-1.450382,-0.549618
0.032715,-0.002930,1.104492,-5.984733,1.343511,-0.152672
0.037598,0.004395,1.098389,-7.213740,2.045802,0.465649
0.037109,0.003174,1.104248,-7.427481,0.091603,0.229008
0.047119,-0.006348,1.091553,-6.854962,0.709924,-0.763359
0.031982,0.001953,1.104736,-7.954198,0.160305,-0.809160
0.056396,-0.022705,1.047852,-8.213740,1.534351,-0.748092
0.039063,-0.006592,1.100098,-6.251908,2.145038,-0.618321
0.040039,-0.002197,1.109375,-4.320611,1.129771,-0.389313
0.029541,-0.005859,1.092285,-4.160306,-0.381679,-0.282443
0.035400,0.001465,1.091064,-5.801527,-0.549618,1.236641
0.057373,-0.004883,1.099609,-5.465649,1.885496,0.748092
0.042236,-0.013184,1.094971,-4.396946,2.954198,-0.480916
0.031006,0.000244,1.103516,-4.946565,-0.366412,0.038168
0.038086,-0.010010,1.101074,-4.900764,-0.312977,0.396947
0.043945,-0.003906,1.099365,-6.343512,2.854962,0.709924
0.038330,-0.011230,1.102539,-6.083970,2.129771,-0.427481
0.032715,-0.009521,1.095703,-5.297710,0.427481,-0.610687
0.026367,-0.010498,1.088379,-4.770992,2.389313,0.832061
0.034424,-0.014160,1.097900,-2.633588,2.809160,1.450382
0.033203,-0.009521,1.099365,-1.885496,0.893130,0.519084
0.034668,-0.006104,1.089355,-3.465649,0.083969,0.053435
0.047607,-0.010498,1.102783,-4.595420,0.610687,0.648855
0.034424,0.000488,1.098633,-4.396946,2.893130,0.900763
0.038330,-0.009766,1.105469,-3.885496,0.213740,0.610687
0.029785,0.010254,1.096436,-3.969466,0.671756,0.145038
0.029297,0.001465,1.079834,-5.473282,1.870229,1.221374
0.040283,-0.015381,1.101318,-5.778626,1.969466,1.229008
0.032959,-0.004883,1.100098,-5.175572,1.122137,-0.450382
0.030762,0.009277,1.101807,-4.900764,0.664122,0.122137
0.024170,0.000000,1.100830,-5.801527,0.236641,1.396947
0.031250,-0.010498,1.093750,-6.847328,0.152672,0.969466
0.037354,-0.000732,1.094482,-8.480916,0.824427,0.389313
0.055908,-0.001953,1.087646,-12.167939,3.488550,0.946565
0.040771,-0.016113,1.089844,-13.488549,4.908397,1.519084
0.019531,-0.028564,1.084717,-13.709924,4.648855,0.961832
0.029297,-0.023682,1.084961,-14.900764,3.946565,1.633588
0.043457,-0.024902,1.079346,-19.038168,3.832061,2.893130
0.022949,-0.025146,1.106445,-26.335878,6.900764,5.190840
0.031250,-0.041016,1.098633,-35.244274,11.618320,6.038168
0.017822,-0.067871,1.114746,-39.305344,14.007633,3.763359
0.010742,-0.107666,1.093750,-41.977100,10.442748,1.458015
-0.000488,-0.126221,1.096680,-44.213741,6.129771,-1.893130
-0.003662,-0.102539,1.084717,-50.267174,-1.083969,-4.190840
-0.013916,-0.143311,1.081055,-62.167938,-9.190840,-4.931298
0.012207,-0.134766,1.069580,-69.091606,-12.854961,-2.312977
-0.000732,-0.167969,1.066406,-75.152672,-10.702291,2.328244
0.018311,-0.200195,1.059814,-79.450378,-7.152672,6.206107
0.020508,-0.272949,1.061768,-87.977097,-14.664123,6.664122
0.027344,-0.257813,1.041260,-92.809158,-16.633587,5.801527
0.037354,-0.323486,1.013916,-97.389313,-13.740458,6.068702
0.058594,-0.378174,1.007568,-96.129768,-8.129771,7.190840
0.044189,-0.411133,0.980957,-95.557251,-1.763359,6.893130
0.052002,-0.454590,0.966797,-107.786260,-10.282443,5.549618
0.048340,-0.506104,0.963135,-114.587780,-14.389313,2.526718
0.080811,-0.527588,0.920898,-110.435110,-1.160305,3.030534
0.056641,-0.560059,0.927490,-107.809160,10.664123,5.931298
0.023682,-0.614258,0.885010,-110.656490,-3.358779,10.213740
0.040283,-0.642090,0.818604,-114.771000,-16.305344,11.251908
0.020508,-0.674561,0.801025,-115.541980,-18.389313,12.740458
0.061035,-0.705078,0.751709,-110.068700,-11.641221,14.396947
0.064697,-0.763428,0.734619,-97.648857,4.175572,17.412214
0.050293,-0.820557,0.687744,-95.282440,6.977099,15.458015
0.019043,-0.794678,0.636719,-95.893127,2.419847,13.931297
0.013184,-0.812256,0.621338,-96.038170,-5.137404,12.961832
0.034424,-0.880371,0.593262,-96.877861,-5.969466,4.961832
0.022705,-0.921631,0.556396,-94.320610,-5.992366,-2.007634
0.014404,-0.888672,0.513916,-85.511452,-5.755725,-1.938931
0.025879,-0.862305,0.462646,-77.053436,-2.770992,3.725191
0.020752,-0.915527,0.445313,-70.412216,1.725191,3.396947
0.006348,-0.967529,0.443359,-61.114502,2.625954,-0.450382
-0.001953,-0.943359,0.463379,-44.244274,-1.221374,1.809160
0.031250,-0.952393,0.397949,-33.839695,-2.015267,5.366412
0.046631,-0.968994,0.377686,-34.053436,-1.435115,3.961832
0.044189,-0.939209,0.384521,-35.412212,3.190840,4.534351
0.039795,-0.952637,0.355713,-34.702290,8.824428,2.648855
0.039551,-0.988281,0.308105,-36.679390,7.603054,-0.824427
0.042969,-0.958496,0.297119,-46.625954,-1.702290,-3.473282
0.025879,-0.940918,0.333008,-52.572517,2.534351,-2.206107
-0.004395,-0.980469,0.326904,-44.526718,18.244274,3.389313
-0.048096,-0.947754,0.237305,-47.839695,15.465649,9.335877
-0.106689,-0.996582,0.187012,-59.969467,7.160306,25.694656
0.089355,-0.982910,0.288574,-45.389313,12.282443,17.251909
-0.002930,-0.996338,0.231689,-38.351147,16.076336,10.274809
-0.006104,-1.006836,0.212402,-30.343512,13.526717,6.282443
-0.009277,-0.983887,0.171143,-24.076336,10.145039,5.908397
-0.030518,-0.991699,0.136963,-18.580153,7.206107,2.625954
-0.019775,-0.998779,0.148438,-12.809160,-4.374046,-0.725191
-0.019531,-0.994873,0.170166,-11.702291,-7.595420,-2.763359
0.002441,-0.967773,0.161621,-12.877863,0.832061,-0.717557
0.000977,-0.964600,0.129395,-21.717558,6.076336,2.755725
-0.027588,-0.989990,0.136963,-25.923664,4.282443,0.404580
-0.021729,-1.011475,0.143555,-19.801527,4.137404,-1.083969
-0.003418,-0.984619,0.118652,-19.015266,8.358779,-0.801527
-0.018066,-0.990967,0.108398,-17.274809,11.374045,-2.145038
-0.020996,-0.991943,0.105957,-15.801527,9.923664,-3.175573
-0.017090,-0.981934,0.132324,-15.595420,3.603053,-4.396946
-0.013672,-1.003418,0.110107,-10.625955,5.221374,-3.030534
-0.007813,-0.966309,0.105469,-11.244275,8.442748,-2.435115
-0.006348,-0.976318,0.079346,-16.633587,10.183207,-3.099237
-0.014893,-0.965088,0.090332,-19.267176,7.442748,-2.312977
-0.008545,-0.980713,0.094727,-19.083969,3.526718,-2.900763
-0.007080,-0.993408,0.085205,-15.435115,5.541985,-1.709924
0.006836,-0.970947,0.081299,-15.801527,4.496183,-1.839695
-0.009521,-0.986084,0.077393,-12.030535,3.847328,-3.267176
-0.028076,-1.003418,0.099365,-2.786260,5.603054,-2.427481
0.008789,-1.008057,0.085693,0.931298,4.770992,-1.290076
0.004150,-1.003662,0.070068,2.435115,5.839694,-1.992366
-0.003418,-1.000977,0.084229,1.671756,2.442748,-1.404580
-0.000977,-0.996582,0.087646,1.931298,3.908397,-0.305344
0.005371,-0.978516,0.070557,1.877863,5.793893,-1.916031
0.001465,-0.980957,0.078857,-0.282443,3.770992,-4.717557
0.002197,-0.986816,0.089600,-1.450382,2.641221,-3.824427
-0.005127,-1.000977,0.096924,-1.038168,3.526718,-3.167939
-0.012451,-0.992188,0.079834,-0.061069,1.870229,-2.557252
0.004883,-0.998535,0.090088,1.381679,1.717557,-1.419847
0.013184,-1.004883,0.108643,1.419847,1.427481,-0.160305
0.019287,-0.991211,0.114502,0.129771,0.251908,-1.343511
-0.005127,-0.983643,0.106689,-0.618321,3.694656,0.702290
-0.003418,-0.990723,0.107178,-0.633588,8.099236,4.091603
0.000732,-0.985840,0.098389,-3.664122,4.175572,1.679389
0.004150,-0.967529,0.099365,-5.923664,-0.595420,-0.885496
0.001221,-0.969238,0.103760,-5.709924,1.091603,-0.923664
0.008545,-0.999756,0.138916,-5.213740,4.358778,-0.259542
-0.153076,-1.009521,0.033691,-15.748092,-1.854962,14.503817
0.072266,-1.024170,0.133545,-11.061069,-9.755725,13.885496
0.095947,-0.991699,0.154297,-2.610687,-8.129771,-5.511450
0.008057,-1.010254,0.113281,-4.923664,-1.656489,-5.221374
-0.006836,-0.988281,0.115479,-3.106870,-0.473282,-1.259542
-0.037598,-1.016113,0.082764,-7.511450,-8.099236,4.717557
-0.020508,-0.984131,0.101807,-5.374046,-0.328244,-1.946565
0.000732,-1.000977,0.095703,-5.610687,4.946565,-1.679389
-0.000977,-1.002930,0.096191,-7.175572,0.679389,-3.587786
0.035400,-1.007080,0.156738,-11.335877,-4.229008,-2.122137
0.001953,-1.002930,0.096680,-8.740458,-2.000000,-3.190840
-0.002686,-0.986572,0.104980,-7.305344,3.847328,-2.183206
0.025146,-0.978271,0.154053,-8.198473,0.969466,0.984733
0.008057,-0.979492,0.102051,-6.946565,-2.343511,-6.007634
-0.053467,-1.151855,0.162842,-7.519084,-0.022901,-0.770992
-0.011230,-1.008057,0.092041,-8.763359,-0.511450,-4.977099
0.003662,-1.006592,0.094482,-3.763359,2.885496,-1.870229
-0.011230,-0.997070,0.101807,-3.030534,1.282443,-3.374046
0.083496,-1.113525,0.105469,-0.709924,2.969466,0.083969
-0.010498,-1.004150,0.108398,1.122137,5.389313,-1.862595
0.018555,-0.978271,0.099121,-1.381679,3.541985,-0.045802
0.003662,-0.983398,0.098145,-3.511450,-1.328244,-1.083969
0.004883,-0.984375,0.108887,-3.755725,1.885496,-0.435115
0.015381,-0.987793,0.088867,-6.725191,4.503817,0.442748
0.004883,-0.986572,0.092529,-6.740458,3.694656,-0.206107
0.019043,-0.992920,0.092041,-6.549618,1.076336,-1.984733
0.013672,-0.995361,0.095703,-6.045802,0.045802,-1.358779
0.008301,-0.998779,0.105957,-3.916031,1.625954,-0.129771
0.012695,-0.994629,0.105713,-3.511450,0.778626,0.923664
0.004395,-0.987305,0.098389,-2.267176,0.320611,0.587786
0.001953,-0.986572,0.096924,-1.160305,0.801527,-0.366412
0.015869,-0.986816,0.090576,-2.458015,-0.427481,-1.763359
0.018066,-0.993164,0.112061,-3.610687,-1.984733,-2.793893
0.016113,-0.982178,0.109619,-4.977099,1.053435,-1.732824
0.020508,-0.993896,0.098633,-6.824428,2.022901,-0.893130
0.001709,-0.996094,0.110352,-6.923664,-0.931298,-1.068702
0.007813,-0.977539,0.102295,-7.763359,-3.541985,-1.404580
0.018311,-0.995117,0.103760,-9.442748,-2.099237,-0.633588
0.027832,-0.987305,0.086182,-10.076336,-0.328244,-0.610687
0.019287,-0.983887,0.097656,-8.801527,-0.473282,-1.801527
0.006104,-0.988281,0.107910,-8.129771,-1.152672,-2.000000
0.018066,-0.987549,0.093750,-8.167939,-0.045802,-0.587786
0.023193,-0.997803,0.090576,-8.717557,-0.465649,0.687023
0.014648,-0.999756,0.094971,-6.847328,1.587786,0.717557
0.020996,-0.988281,0.094971,-7.045802,-0.076336,1.137405
0.013184,-0.981689,0.087158,-8.916031,-2.862595,1.190840
0.018799,-0.988281,0.090332,-10.725191,-2.419847,1.809160
0.012695,-0.987061,0.098145,-9.389313,0.129771,4.931298
0.016357,-0.970703,0.094238,-12.832061,1.648855,4.931298
0.027832,-0.985107,0.081055,-18.572519,3.358779,5.030534
0.015381,-0.973877,0.064941,-27.206106,-6.244275,4.404580
-0.010254,-1.041016,0.078369,-30.091602,-7.679389,-1.603053
0.047363,-0.984863,0.017822,-38.198475,-7.916030,-5.625954
0.018066,-0.980957,0.006348,-41.541985,-1.687023,-2.030534
0.005615,-0.927734,-0.002930,-48.854961,-11.183207,1.068702
-0.035645,-0.897949,0.033691,-45.793892,-17.061069,8.389313
-0.008545,-1.014160,0.002441,-42.389313,-11.450381,10.389313
0.025391,-0.994385,-0.053467,-47.977100,-7.534351,7.984733
0.031738,-1.009277,-0.142334,-56.129772,-1.671756,2.106870
-0.023193,-0.965088,-0.100830,-59.213741,0.320611,3.656489
0.010498,-0.953369,-0.108887,-66.717560,-7.473282,1.770992
0.000244,-0.970947,-0.110596,-64.519081,8.114504,-3.427481
0.049805,-0.951660,-0.179932,-62.824429,24.916031,-1.770992
-0.014893,-0.914551,-0.260010,-73.572517,28.022902,-6.122138
-0.004395,-0.911621,-0.234375,-75.633591,17.847328,-14.603053
-0.004395,-0.913818,-0.289307,-71.114502,8.725191,-14.000000
-0.014404,-0.951172,-0.289551,-52.748093,20.755726,-12.770992
0.026611,-0.952148,-0.319824,-52.374046,23.618320,-9.526717
0.056396,-0.905273,-0.354736,-55.908398,28.290077,-4.183206
0.012207,-0.815430,-0.377197,-70.000000,14.412213,-5.106870
0.029785,-0.805420,-0.431396,-94.221375,-6.793893,-9.770992
0.064941,-0.918213,-0.495850,-115.809160,-10.114504,-17.465649
0.047607,-0.908691,-0.382324,-106.648860,-14.458015,-6.152672
-0.041748,-0.817871,-0.468994,-80.236641,-7.389313,8.450381
0.086670,-0.710693,-0.650146,-82.656487,-4.893130,12.580153
0.047119,-0.708740,-0.664795,-101.160310,-27.557251,9.145039
0.022217,-0.821777,-0.660156,-109.778630,-39.343510,4.992366
0.100830,-0.760742,-0.649170,-111.145030,-34.587788,8.160305
0.022949,-0.726074,-0.635742,-109.748090,-9.877863,16.671755
-0.086426,-0.648682,-0.635010,-95.312981,19.938931,29.923664
-0.050293,-0.516357,-0.691162,-91.160309,50.358780,35.007633
-0.106934,-0.519287,-0.659180,-115.473280,59.435116,23.305344
-0.051758,-0.516357,-0.727783,-134.122130,50.931297,16.229008
-0.032471,-0.516113,-0.728760,-131.030530,47.374046,20.748091
-0.035156,-0.305420,-0.748535,-120.267170,42.633587,23.564886
-0.001221,-0.303711,-0.926270,-124.503810,-1.305344,8.366412
0.067139,-0.378174,-0.913330,-114.419850,-22.847328,-3.618321
0.189697,-0.447266,-1.034668,-85.282440,-16.526718,-10.259542
0.205566,-0.285400,-1.053711,-52.763359,1.106870,-15.022901
0.095703,-0.240967,-0.995850,-59.152672,-21.091602,-35.198475
0.000732,-0.230469,-0.896240,-64.167938,-36.007633,-36.618320
-0.049561,-0.219971,-0.855957,-59.068703,-28.335878,-23.564886
0.027832,-0.052734,-0.907959,-55.725189,-1.053435,-11.862596
0.085449,-0.085938,-0.917480,-67.061066,16.862595,-24.282442
0.107910,-0.152100,-0.956787,-78.267174,29.519083,-32.778625
-0.013916,-0.011230,-0.905518,-73.755722,29.694656,-21.122137
0.018066,-0.084473,-0.854004,-46.236641,-1.969466,-27.916031
0.104492,-0.059570,-0.874268,-1.511450,12.236641,-9.931297
0.110107,-0.011475,-0.957275,0.992366,33.290077,-5.190840
0.092041,0.018799,-1.013428,-23.870230,9.778625,-14.770992
0.075439,-0.124756,-0.996094,-42.068703,-17.335878,-15.022901
0.097656,-0.010498,-0.994141,-37.748093,-2.458015,2.091603
0.038818,-0.003906,-0.945557,-34.656490,12.206107,1.038168
0.055176,-0.026123,-0.907471,-18.061069,21.083969,-1.832061
0.041992,-0.016357,-0.913574,-1.809160,24.297710,4.702290
0.062500,0.045898,-0.896240,-3.312977,29.076336,12.702291
0.093262,0.078857,-0.950195,-21.916031,16.244274,6.938931
0.097168,0.064697,-0.967041,-39.053436,6.656488,-2.603053
0.074219,0.031006,-0.927490,-34.412212,-1.893130,-0.847328
0.088623,0.029785,-0.916504,-17.938931,-10.351145,3.709924
0.145264,0.053467,-0.920166,-6.809160,-11.083969,6.045802
0.117920,0.093506,-0.941895,-1.083969,-7.931298,4.152672
0.103271,0.088379,-0.962646,-3.618321,-12.335877,-0.786260
0.091553,0.060303,-0.958008,-3.305344,-4.213740,1.374046
0.116943,0.050049,-0.955566,0.954198,4.931298,9.198473
0.108398,0.103271,-0.944580,-4.083970,1.221374,7.862596
0.061768,0.073486,-0.916016,-3.694656,-5.160306,5.145038
0.095947,0.050781,-0.945557,0.145038,-0.526718,6.610687
0.115723,0.053467,-0.962891,-2.633588,5.938931,2.580153
0.092773,0.045898,-0.962402,-5.541985,3.145038,1.038168
0.077637,0.053955,-0.952637,-2.015267,-0.969466,3.549618
0.063232,0.052246,-0.937256,2.526718,-8.770992,3.557252
0.086670,0.038330,-0.936523,5.870229,-3.854962,5.068702
0.100830,0.071533,-0.917725,6.236641,2.732824,3.389313
0.062744,0.048584,-0.912354,3.458015,-0.305344,-0.511450
0.069336,0.022949,-0.917969,4.564886,4.694656,2.587786
0.102783,0.042969,-0.959229,6.251908,6.129771,2.954198
0.107910,0.030518,-0.985352,-1.442748,3.114504,-0.778626
0.089600,0.029541,-0.992432,-7.290076,0.770992,1.832061
0.105225,0.022949,-0.976318,-8.519084,-5.076336,0.068702
0.095947,0.027832,-0.951660,-2.427481,-8.450381,1.862595
0.091797,0.043945,-0.943848,-2.419847,-5.793893,0.389313
0.057373,0.027588,-0.935791,-6.641222,-2.167939,2.190840
0.090820,0.033203,-0.923828,-6.816794,2.442748,2.725191
0.067139,0.039307,-0.927246,-6.541985,0.717557,2.206107
0.100830,0.026123,-0.929199,-9.572519,-3.045802,-0.389313
0.094727,0.044922,-0.940430,-6.328244,4.030534,1.015267
0.083740,0.067139,-0.956299,-6.206107,1.374046,-0.580153
0.075684,0.031006,-0.943848,-7.702290,-2.389313,-1.007634
0.064697,0.038574,-0.931641,-4.129771,-3.351145,2.969466
0.098877,0.022217,-0.979492,-3.160305,-6.549618,2.946565
0.086914,0.034180,-0.945313,-9.931297,-4.480916,0.595420
0.075684,0.041016,-0.944824,-10.015267,1.603053,0.625954
0.065430,0.028809,-0.933594,-1.267176,2.396947,0.900763
0.071289,0.029541,-0.952637,-2.000000,2.358779,1.923664
0.082275,0.029053,-0.955078,-9.832061,-0.923664,-0.114504
0.075928,0.030762,-0.937744,-9.862596,-0.267176,-1.687023
0.059326,0.021729,-0.941895,-4.076336,-2.236641,0.312977
0.053467,0.035400,-0.932617,-3.122137,-1.496183,1.923664
0.067627,0.042480,-0.949707,-7.083970,0.541985,2.717557
0.086914,0.039551,-0.953369,-10.931297,0.564885,0.389313
0.068604,0.045410,-0.946045,-6.297710,0.190840,0.267176
0.064697,0.043945,-0.947266,-3.320611,-0.656489,0.786260
0.072754,0.040039,-0.947021,-2.793893,1.175573,1.702290
0.076416,0.049316,-0.930664,-3.274809,1.801527,1.480916
0.080566,0.042969,-0.957764,-6.786260,-0.190840,-0.755725
0.073486,0.038330,-0.958984,-7.335878,-1.541985,-0.351145
0.063965,0.025879,-0.942871,-4.694656,-0.961832,2.442748
0.072266,0.048340,-0.932861,-2.595420,0.793893,3.870229
0.064209,0.067627,-0.931396,-2.396947,0.679389,0.809160
0.064697,0.032959,-0.943848,-3.847328,0.908397,0.687023
0.081787,0.039795,-0.956787,-6.167939,1.816794,0.916031
0.054688,0.028076,-0.950928,-5.236641,-2.702290,1.251908
0.072510,0.034180,-0.949219,-2.061069,1.664122,2.526718
0.085693,0.033936,-0.950684,-3.610687,1.221374,0.251908
0.067383,0.029297,-0.947021,-5.366412,-0.366412,-1.198473
0.064941,0.043457,-0.940918,-5.534351,0.099237,-0.748092
0.065918,0.034668,-0.940430,-3.503817,0.496183,-0.251908
0.080566,0.029785,-0.941162,-1.038168,1.366412,0.679389
0.069092,0.036621,-0.939209,-1.870229,-0.740458,0.648855
0.080078,0.034180,-0.950928,-4.946565,-0.374046,0.877863
0.078613,0.031738,-0.945557,-7.137404,-0.786260,0.198473
0.058350,0.047607,-0.948242,-5.030534,-0.541985,0.916031
0.075928,0.039551,-0.946777,-3.938931,1.549618,-0.671756
0.069824,0.029785,-0.933838,-2.267176,1.435115,-0.381679
0.076904,0.034424,-0.939209,-3.328244,0.564885,0.206107
0.075439,0.031494,-0.952393,-7.519084,0.717557,-0.022901
0.069580,0.037842,-0.944824,-5.717557,0.877863,0.305344
0.071777,0.029297,-0.955811,-2.045802,-0.641221,0.946565
0.065186,0.023438,-0.925537,-3.496183,-1.045802,1.969466
0.064209,0.043457,-0.934570,-7.450382,1.213740,-0.580153
0.069580,0.036865,-0.957031,-8.603053,0.312977,-1.534351
0.071289,0.026611,-0.952881,-4.099236,1.007634,-0.908397
0.075195,0.033203,-0.962158,-4.916030,0.259542,-0.374046
0.056885,0.025635,-0.941162,-8.160305,-0.633588,-1.709924
0.057129,0.024658,-0.932129,-3.427481,-0.618321,0.557252
0.073242,0.041504,-0.938232,-1.809160,1.625954,1.465649
0.077881,0.042969,-0.938721,-3.770992,0.702290,0.083969
0.071777,0.029785,-0.933838,-6.267176,0.236641,-1.152672
0.056641,0.021729,-0.950195,-6.366412,0.053435,-0.885496
0.056396,0.022217,-0.940186,-1.053435,-0.786260,2.267176
0.061035,0.043213,-0.954346,-2.877863,0.618321,1.290076
0.068848,0.032715,-0.940186,-3.992366,-0.526718,0.038168
0.054443,0.030762,-0.932373,-1.091603,0.534351,0.374046
0.074951,0.020020,-0.961182,-4.030534,0.671756,1.076336
0.073730,0.030518,-0.951416,-6.419847,-0.076336,-0.908397
0.054688,0.010986,-0.929199,0.793893,0.122137,0.183206
0.067871,0.014404,-0.951660,6.511450,1.549618,2.473282
0.075684,0.032715,-0.944336,6.022901,1.770992,1.641221
0.058838,0.012207,-0.933105,4.519084,0.526718,-0.511450
0.073730,-0.000732,-0.942383,5.122138,0.809160,1.801527
0.085938,-0.007324,-0.953613,3.824427,3.022901,2.068702
0.074219,-0.009277,-0.953857,4.122138,1.732824,1.900763
0.063477,-0.014404,-0.937012,8.114504,1.519084,2.267176
0.074707,-0.016602,-0.942383,14.312977,2.274809,1.969466
0.076904,-0.035156,-0.947266,15.969465,2.267176,0.977099
0.081299,-0.025879,-0.942627,16.312977,4.671756,-0.854962
0.063721,-0.037354,-0.910400,19.877863,6.748092,-1.053435
0.075439,-0.053711,-0.923340,29.305344,9.419847,-0.488550
0.115967,-0.088135,-0.951660,32.320610,6.854962,-1.870229
0.112793,-0.136963,-0.945313,35.755726,6.213740,-3.694656
0.073975,-0.143066,-0.932373,43.007633,6.992366,2.030534
0.107178,-0.154785,-0.954102,45.549618,6.007634,5.137404
0.084473,-0.155762,-0.927979,44.770992,8.740458,3.931298
0.079834,-0.196045,-0.912109,47.931297,11.015267,8.458015
0.134521,-0.209961,-0.945068,48.595421,13.541985,9.541985
0.137695,-0.236328,-0.943604,42.786259,10.793893,7.427481
0.090820,-0.236328,-0.918701,40.618320,7.297710,7.839694
0.085205,-0.251221,-0.914551,42.541985,2.778626,8.793893
0.099365,-0.270996,-0.916748,51.633587,7.259542,13.167939
0.085693,-0.280029,-0.858643,58.770992,2.114504,14.839695
0.073242,-0.368652,-0.864014,72.885498,-5.496183,20.541985
0.125244,-0.400391,-0.880371,88.458015,3.190840,26.458015
0.108643,-0.394043,-0.833252,92.946564,5.580153,24.816793
0.074707,-0.448975,-0.801758,96.297707,0.167939,22.061069
0.052979,-0.539307,-0.779053,103.190840,-11.297709,23.076336
0.144531,-0.599854,-0.789063,115.786260,-7.885496,25.190840
0.114502,-0.607422,-0.766846,117.229000,-4.221374,20.671755
0.053711,-0.669922,-0.707520,119.809160,-5.572519,10.625955
-0.012451,-0.739746,-0.648193,126.641220,-16.145039,8.511451
0.070068,-0.821289,-0.619629,129.549620,-13.740458,7.175572
0.046387,-0.792969,-0.567383,123.022900,-11.251908,8.007633
0.014160,-0.774170,-0.497314,111.244280,-13.793893,13.404580
0.031006,-0.815674,-0.446045,96.251907,-11.893129,16.473282
0.022705,-0.844971,-0.419189,85.885498,-0.511450,16.725191
-0.002930,-0.831055,-0.392090,79.526718,3.083969,16.725191
0.009277,-0.854248,-0.375732,74.351143,-2.015267,15.793893
0.081055,-0.894287,-0.384033,65.015266,-4.557252,8.648855
0.028564,-0.915527,-0.323486,62.564884,-0.778626,5.167939
-0.029297,-0.912354,-0.285156,61.916031,-1.809160,3.832061
-0.046875,-0.915771,-0.255371,58.732826,-10.458015,0.022901
-0.003418,-0.932861,-0.261475,57.809162,-15.328244,-2.519084
0.034424,-0.981689,-0.174805,51.038166,-22.007633,-7.763359
-0.008057,-0.995117,-0.188965,47.236641,-13.557252,-6.755725
-0.045898,-0.987305,-0.110352,43.557251,-9.954199,-8.015267
-0.017822,-0.978027,-0.107178,40.480915,-9.259542,-8.427481
0.021484,-0.950928,-0.125732,28.938931,-4.175572,-10.091603
0.006836,-0.926758,-0.084229,14.480916,-7.679389,-10.862596
0.000244,-1.012695,0.010498,8.786260,-12.778625,-10.442748
0.021484,-0.941650,-0.126221,6.839694,-5.740458,-4.198473
0.001465,-0.985840,-0.027100,3.877863,-2.412214,-3.106870
-0.024902,-0.945557,-0.049316,3.748092,1.114504,-3.541985
0.010498,-1.034424,-0.017334,11.755725,-7.145038,-4.251908
0.031006,-1.038086,-0.048828,13.412213,-9.290076,-0.786260
0.028076,-0.984131,-0.074463,1.809160,-1.839695,0.450382
-0.005859,-0.990723,-0.028564,-2.847328,-4.618320,1.145038
0.021240,-0.967773,-0.024170,1.748092,-9.595420,2.396947
0.018799,-0.994873,-0.030029,0.259542,-6.099236,3.862595
0.007324,-0.967529,-0.065674,0.351145,1.992366,3.984733
-0.000732,-0.958984,-0.056885,1.519084,-2.694656,0.396947
0.009766,-0.971191,-0.003174,3.106870,-13.786260,-4.267176
0.030762,-0.981689,-0.023926,-3.091603,-15.488549,-8.000000
0.036865,-0.986328,-0.033936,-13.488549,-7.251908,-7.732824
0.002441,-0.982178,0.001465,-13.465649,-0.633588,-3.923664
-0.020508,-0.994141,-0.002197,-3.183206,-2.587786,-1.320611
0.009033,-1.011963,-0.024658,4.557252,-5.519084,-0.007634
0.050049,-1.008301,-0.044678,3.778626,-3.557252,1.488550
0.002686,-0.979980,-0.004395,1.549618,-0.755725,0.732824
0.000244,-0.969727,-0.000977,2.534351,-0.954198,-0.427481
0.021729,-0.982422,-0.002197,2.206107,-4.335878,0.053435
0.031494,-0.974365,-0.017334,-1.763359,-2.603053,-0.114504
0.018555,-0.989990,0.001953,-4.801527,2.511450,-0.480916
0.010742,-0.984375,-0.003174,-3.938931,4.618320,0.534351
0.011475,-0.982910,-0.011963,-3.305344,0.068702,-0.061069
0.005371,-0.992920,-0.008545,-1.778626,-2.740458,-0.030534
0.013672,-0.999268,-0.003662,-2.816794,-0.396947,0.809160
0.020264,-0.986816,-0.017090,-6.038168,1.595420,0.198473
0.021484,-0.973145,-0.011719,-9.007633,-1.450382,0.000000
0.015625,-0.984863,-0.009033,-8.358779,-0.877863,-0.748092
0.009521,-0.977539,-0.015381,-8.954199,1.610687,-1.282443
0.013184,-0.992188,-0.003418,-5.068702,0.870229,-0.122137
0.018066,-0.999756,-0.019531,-5.061069,-0.503817,-0.213740
0.017822,-0.995605,-0.028564,-3.755725,-0.419847,-0.648855
0.013916,-0.984619,-0.016113,-2.870229,-0.908397,-0.473282
0.011475,-0.981689,-0.002930,-3.412214,-0.328244,0.022901
0.015137,-0.990234,0.009766,-4.473282,-1.427481,0.419847
0.017822,-0.987061,-0.013672,-4.229008,-1.893130,1.511450
0.014404,-0.995117,-0.002930,-3.625954,-0.778626,1.305344
0.005127,-0.986084,-0.008789,-2.450382,-0.763359,2.160305
0.013672,-0.991455,-0.022217,-2.671756,-2.580153,1.442748
0.016846,-0.977783,-0.008057,-5.870229,-1.465649,0.106870
0.010254,-0.982178,-0.015381,-6.687023,1.770992,0.106870
0.012207,-0.977295,-0.011719,-8.030535,0.396947,0.618321
-0.002930,-0.983398,-0.010742,-7.893130,-0.175573,0.816794
-0.010742,-0.996338,0.001709,-3.106870,-1.274809,1.526718
0.010010,-0.989502,-0.009521,-0.854962,-0.030534,2.679389
0.018066,-1.006836,-0.017822,-0.923664,0.320611,2.549618
0.015381,-0.984375,-0.019775,-2.519084,-0.389313,0.702290
0.011963,-0.961426,-0.016602,-5.870229,-0.954198,-0.893130
0.010986,-0.980713,-0.002686,-9.656488,-0.564885,-0.221374
-0.003906,-0.988525,0.005615,-6.770992,1.442748,0.282443
-0.000244,-0.981934,-0.002197,-5.114504,-0.381679,-0.114504
0.001221,-0.982666,-0.001953,-4.572519,-0.664122,0.435115
0.017334,-0.986328,-0.021973,-6.862596,1.740458,1.519084
0.000977,-0.993652,-0.013428,-9.656488,2.427481,0.442748
0.006104,-0.991943,-0.005615,-11.412213,0.007634,-0.160305
0.002197,-0.980957,-0.029297,-12.274809,-0.763359,-1.145038
-0.001709,-1.005615,-0.022705,-11.564885,1.702290,0.450382
-0.008057,-1.010254,-0.020752,-4.664122,2.519084,1.526718
-0.001709,-1.007080,-0.006104,2.488550,-2.442748,0.290076
0.014648,-0.977783,-0.022705,3.267176,-1.160305,-1.442748
0.004395,-0.989014,0.000244,0.572519,-0.374046,-1.847328
0.003174,-0.993896,-0.001709,2.007634,-0.053435,-0.679389
0.001221,-0.978027,-0.014648,0.053435,-1.251908,-1.068702
0.011230,-0.975342,0.028809,-4.267176,-2.358779,-0.419847
0.015137,-0.974854,0.010010,-3.709924,4.007634,2.603053
-0.001221,-0.982666,-0.006104,-3.839695,3.175573,1.519084
0.003662,-1.000732,-0.003662,-4.946565,-1.709924,0.396947
0.029297,-0.993164,-0.012451,-6.809160,1.274809,2.091603
0.016113,-0.977051,-0.004150,-12.190840,-3.290076,1.251908
0.008057,-0.981689,-0.001953,-12.687023,0.022901,2.992366
0.001953,-0.989746,-0.000732,-11.236641,0.641221,4.709924
-0.000244,-0.981445,-0.021240,-11.145039,1.038168,4.129771
-0.009521,-0.987549,-0.015381,-9.770992,-0.595420,2.419847
-0.017334,-0.985107,-0.006836,-6.198473,-0.167939,2.038168
-0.013672,-1.004395,-0.019531,-4.099236,0.221374,0.282443
-0.004150,-0.999512,-0.016846,-1.801527,0.954198,-0.458015
-0.010254,-0.989502,-0.021484,-1.480916,0.106870,-1.022901
-0.006104,-0.980469,-0.009033,-2.877863,-1.389313,-0.625954
-0.003418,-0.969482,-0.004639,-3.847328,0.351145,-0.580153
0.004150,-0.984131,-0.004150,-3.862595,0.038168,-0.664122
-0.004883,-0.985840,-0.017578,-5.648855,1.259542,-0.374046
-0.011719,-0.980957,-0.008545,-6.267176,0.282443,0.091603
0.006836,-0.988037,-0.009033,-5.709924,-0.458015,0.885496
-0.007080,-0.989990,-0.010742,-6.183206,1.412214,0.969466
-0.006836,-0.994873,-0.009766,-5.526718,-0.068702,0.679389
0.004639,-0.979248,-0.015381,-6.847328,-1.076336,0.137405
0.002197,-0.994873,-0.008057,-6.534351,0.526718,0.244275
0.003662,-1.001465,-0.004395,-4.519084,1.068702,-0.541985
-0.006104,-0.978027,-0.017090,-3.854962,0.687023,0.129771
0.012939,-0.985352,-0.022949,-5.503817,0.603053,-0.885496
-0.003174,-0.989502,-0.015137,-3.977099,0.480916,-0.480916
-0.004639,-0.990723,-0.008301,-0.221374,2.335878,-0.175573
0.003662,-0.991211,-0.020264,1.106870,3.328244,0.419847
-0.005859,-1.006104,-0.001221,3.610687,2.030534,0.145038
-0.022949,-1.019531,0.049072,8.137404,-1.206107,-2.297710
-0.015869,-1.014160,0.030762,15.847328,-1.877863,-2.961832
0.005127,-1.012207,0.011963,22.297710,0.190840,-2.671756
-0.000488,-0.969238,0.013428,26.839695,2.007634,-1.442748
-0.016357,-0.959717,0.040039,31.854961,2.717557,-1.702290
0.030518,-1.032959,0.085693,43.183205,4.610687,-3.893130
-0.018799,-1.008301,0.121582,57.625954,7.320611,-1.877863
-0.005859,-0.992188,0.123535,68.290077,2.687023,-3.267176
0.044189,-1.009766,0.176025,76.053436,-0.740458,-3.519084
0.023682,-0.992676,0.199463,82.183205,2.045802,-0.045802
0.025879,-0.977295,0.189941,83.740456,9.374045,-1.343511
-0.000977,-0.965088,0.261719,85.656487,2.732824,-3.374046
-0.002197,-0.974854,0.333008,88.251907,-4.625954,-5.473282
0.030762,-0.930664,0.363770,82.603050,-4.862596,-5.603054
0.025391,-0.928467,0.412842,87.106873,7.366412,-4.625954
-0.007813,-0.837646,0.430908,84.015266,10.832061,-1.648855
0.001465,-0.818359,0.421875,76.335876,7.725191,-2.473282
0.036621,-0.879395,0.554932,85.877861,8.648855,-4.145038
0.009521,-0.882080,0.615234,108.389310,23.297710,-1.099237
0.021729,-0.875244,0.628418,112.244280,24.343512,-0.374046
0.025391,-0.854980,0.659424,106.167940,15.206107,-1.068702
0.014404,-0.837402,0.692139,107.290080,10.824428,-2.541985
-0.027100,-0.755371,0.751465,112.381680,10.931297,-5.633588
-0.023438,-0.707764,0.807373,119.763360,15.435115,-4.702290
-0.057373,-0.644531,0.810303,118.771000,16.381680,-2.740458
-0.075195,-0.588135,0.796631,110.061070,4.549618,-1.534351
-0.021484,-0.568115,0.894531,103.480920,-10.664123,-1.473282
-0.001953,-0.515625,0.968994,110.061070,-21.603054,-2.496183
-0.013672,-0.444824,0.941650,119.442750,-13.259542,-3.671756
0.008057,-0.455078,0.990234,110.068700,-2.465649,-2.847328
0.010986,-0.422119,0.978760,96.122139,-9.435115,-1.519084
0.029785,-0.384033,1.005615,84.511452,-14.030535,-2.511450
0.036621,-0.326172,1.046875,75.022903,-6.877862,-2.160305
0.023682,-0.284424,1.043457,61.129772,1.358779,-2.053435
0.049561,-0.306641,1.080566,52.610687,5.809160,-2.236641
0.005371,-0.275635,1.059326,44.801525,7.580153,-1.839695
0.024902,-0.229980,1.078125,44.366413,9.938931,-0.419847
0.022705,-0.183350,1.095703,44.106869,10.496183,1.755725
0.006348,-0.202148,1.064453,39.198475,13.648855,3.175573
-0.014893,-0.151611,1.062744,35.503819,4.511450,3.961832
-0.013916,-0.138428,1.067627,35.740459,3.190840,4.442748
-0.016602,-0.125488,1.060059,31.488550,5.175572,4.404580
-0.006104,-0.133545,1.055420,24.427481,2.908397,3.770992
-0.003174,-0.122803,1.058105,18.015266,-0.854962,0.633588
-0.003906,-0.108398,1.103760,16.145039,-4.877862,-1.793893
-0.003906,-0.102539,1.107666,14.931297,-6.839694,-1.206107
0.020508,-0.093262,1.072754,8.152672,-3.664122,-0.465649
0.019531,-0.084229,1.094238,0.923664,2.251908,-1.312977
-0.002930,-0.069336,1.098877,-1.770992,5.793893,-2.167939
-0.007080,-0.049072,1.115967,-2.312977,4.312977,0.236641
-0.010986,-0.031982,1.101318,-3.244275,5.656488,3.763359
-0.009033,-0.048340,1.082520,-5.816794,3.671756,6.595420
-0.010986,-0.070557,1.089600,-6.167939,5.114504,5.595420
-0.010986,-0.057373,1.085449,-2.480916,8.053435,4.671756
-0.015869,-0.057373,1.105713,3.122137,10.862596,2.824427
-0.029541,-0.052490,1.098145,6.488550,10.908397,4.007634
-0.027588,-0.038086,1.075928,9.603053,11.190840,5.618320
-0.038818,-0.037598,1.074219,10.167939,8.435115,7.236641
-0.038818,-0.040527,1.076416,5.793893,-0.641221,7.076336
-0.016113,-0.044434,1.111328,9.671756,-4.694656,2.465649
-0.016357,-0.025879,1.098145,16.030535,-0.206107,-3.748092
-0.039795,-0.012939,1.083740,14.343512,2.145038,-2.931298
-0.053711,-0.012451,1.097656,7.824428,1.198473,1.007634
-0.044434,-0.008545,1.082275,2.580153,2.396947,1.458015
-0.025146,-0.013916,1.103516,1.389313,1.969466,-0.618321
-0.026855,-0.005615,1.105957,2.076336,0.992366,-2.618321
-0.050537,0.008301,1.096436,-0.679389,0.175573,0.106870
-0.030273,0.013672,1.086182,-4.076336,2.870229,2.969466
-0.026611,0.009033,1.112793,-3.984733,3.618321,3.793893
-0.031738,0.004639,1.096680,-0.358779,6.358778,4.022901
-0.040283,0.003418,1.082275,-1.984733,2.519084,2.931298
-0.032715,0.010742,1.081299,-7.022901,0.641221,1.870229
-0.047363,0.001709,1.089600,-10.969465,-1.839695,1.580153
-0.041992,0.005859,1.100586,-9.633588,3.549618,1.984733
-0.050537,0.014648,1.111084,-4.854962,6.320611,1.068702
-0.046631,0.004639,1.109863,-1.442748,2.786260,1.496183
-0.040527,-0.005127,1.092285,-0.877863,1.770992,1.129771
-0.046631,0.010254,1.079834,-4.007634,2.183206,0.435115
-0.050537,0.025879,1.088623,-7.007634,1.870229,0.175573
-0.034180,-0.006104,1.106201,-7.824428,-0.244275,-0.274809
-0.034912,-0.010254,1.107422,-6.511450,-1.526718,-1.946565
-0.035156,0.008789,1.101807,-4.167939,1.801527,-2.480916
-0.050537,0.008057,1.099854,-3.969466,3.328244,-1.877863
-0.049561,0.010986,1.089355,-5.564886,-0.114504,-1.427481
-0.037354,0.010498,1.105957,-6.801527,-1.511450,-1.366412
-0.049316,0.017822,1.104004,-6.832061,3.099237,0.671756
-0.050049,0.013916,1.083984,-6.473282,2.610687,2.160305
-0.045654,0.004639,1.098145,-7.419847,-0.083969,2.473282
-0.034180,0.002686,1.098877,-6.786260,0.763359,1.557252
-0.055908,0.007324,1.100830,-5.061069,2.519084,1.519084
-0.063721,0.005371,1.113281,-4.786260,-0.946565,3.175573
-0.044189,0.000732,1.091797,-6.366412,-2.412214,3.396947
-0.039307,0.020752,1.062256,-10.022901,0.396947,4.816794
-0.054199,0.006592,1.089844,-12.480916,0.885496,3.557252
-0.050293,-0.003906,1.096191,-9.755725,1.427481,3.450382
-0.046143,-0.006348,1.110596,-7.877862,-3.648855,4.679389
-0.033691,-0.003662,1.102295,-9.129771,-4.717557,6.732824
-0.026367,-0.001221,1.080322,-9.969465,0.801527,7.198473
-0.040527,-0.000977,1.092285,-9.206107,4.832061,6.748092
-0.053223,-0.022461,1.085205,-8.167939,2.175573,5.435114
-0.048584,-0.029053,1.091064,-6.541985,-2.389313,3.045802
-0.040527,-0.006836,1.097656,-6.320611,-3.770992,1.770992
-0.032959,-0.008545,1.096924,-7.152672,-3.702290,2.435115
-0.043213,-0.001953,1.110352,-6.824428,-2.251908,5.145038
-0.051270,0.006592,1.102539,-6.511450,-1.106870,7.038168
-0.038086,-0.007324,1.098145,-6.145038,-2.916031,10.038168
-0.033203,-0.005859,1.077393,-3.816794,2.526718,10.335877
-0.045654,-0.037842,1.087646,-3.099237,2.534351,8.083969
-0.037354,-0.024902,1.094971,-3.297710,-4.633588,5.229008
-0.037354,0.010254,1.088135,-6.015267,-9.328244,4.480916
-0.024170,-0.001221,1.087158,-6.541985,-5.458015,6.610687
-0.037354,0.000977,1.101074,-4.648855,0.251908,8.496183
-0.036377,-0.007324,1.104736,-2.290076,0.534351,9.511451
-0.038086,-0.012207,1.100830,-3.129771,-3.786260,10.412213
-0.010254,-0.031738,1.102295,-5.206107,-8.687023,10.328244
-0.020996,-0.026123,1.092041,-3.190840,-6.832061,9.496183
-0.018066,-0.004883,1.097412,-0.297710,-2.038168,10.580153
-0.031494,0.007568,1.082275,1.114504,-1.229008,13.458015
-0.012451,-0.006592,1.091064,0.358779,-8.977099,14.076336
-0.001221,-0.001221,1.092285,-0.068702,-12.603053,11.725191
-0.005615,-0.000732,1.103027,-0.763359,-11.160305,10.916031
0.000244,-0.001953,1.105225,-1.274809,-8.778625,11.015267
-0.002930,0.000488,1.091309,-4.053435,-8.083969,10.687023
0.003174,-0.010986,1.093262,-5.725191,-5.603054,8.183207
0.008301,-0.006592,1.095215,-7.175572,-2.709924,4.862596
0.025879,0.003418,1.105713,-7.885496,-4.893130,4.175572
0.028809,0.011475,1.116211,-8.969465,-6.068702,5.236641
0.021973,0.027588,1.094971,-6.748092,-3.541985,7.557252
0.010254,0.014404,1.088867,-5.778626,-1.229008,9.870229
0.001465,-0.009033,1.084473,-6.900764,-6.114504,10.083969
0.020020,-0.002197,1.110596,-7.541985,-19.877863,11.267176
0.038818,0.009277,1.128174,-6.053435,-27.358778,14.229008
0.065430,-0.003906,1.169678,8.572519,-24.396946,18.954199
0.078125,-0.000732,1.111328,23.122137,-18.702290,22.007633
0.087402,0.007324,1.118408,30.633587,-18.603054,28.687023
0.072510,0.226318,0.874268,37.221375,-26.244274,38.206108
0.064697,0.115967,1.113037,48.687023,-34.267174,50.725189
0.062012,0.085449,1.053955,53.832062,-24.419847,72.519081
0.093994,0.032227,1.135742,64.297707,-20.053434,86.656487
0.101807,0.216553,1.092041,84.450378,-11.450381,112.534350
0.157959,0.286133,0.926025,73.290077,11.366412,145.450380
0.170654,0.152344,1.019531,47.061069,8.526717,162.763350
0.158691,0.043701,1.174561,52.404579,-9.473283,155.557250
0.168213,0.164551,1.065918,60.946564,-26.458015,131.488560
0.262207,0.351074,0.963623,41.854961,-41.541985,124.450380
0.424561,0.177734,0.871826,3.152672,-25.854961,98.381676
0.233887,0.223877,1.162354,26.450382,-19.755726,54.129772
0.218262,0.215576,1.110107,37.709923,-11.984733,34.374046
0.201172,0.249023,1.081787,29.236641,-44.671757,20.816793
0.319824,0.286377,0.964355,9.389313,-58.274811,19.694656
0.258545,0.290527,0.942139,10.580153,-47.465649,32.167938
0.364258,0.309570,1.037109,24.274809,-54.198475,43.618320
0.387939,0.306152,1.012695,47.221375,-78.091606,48.290077
0.399170,0.318359,0.970947,65.709923,-86.351143,50.320610
0.471680,0.306885,0.870361,60.648853,-89.969467,54.938931
0.485107,0.273682,0.861328,49.015266,-90.480919,64.458015
0.423828,0.250977,0.902344,36.923664,-79.244278,60.793892
0.457275,0.263428,0.811035,23.320610,-76.160309,55.778625
0.642334,0.310791,0.628906,14.580153,-68.251907,46.213741
0.785645,0.402588,0.777588,18.068703,-76.160309,26.862595
0.858887,0.331543,0.806885,41.480915,-68.900764,2.099237
0.848389,0.326416,0.793701,67.984734,-25.984734,-14.725191
0.637451,0.371338,0.690186,65.541985,12.007633,-25.618320
0.723145,0.543457,0.682129,15.312977,6.244275,-17.343512
0.726807,0.411133,0.651367,-41.190838,-60.312977,42.908398
0.570557,0.344238,0.873535,4.740458,2.969466,30.488550
0.692627,0.267334,0.771484,-0.938931,-15.656488,40.213741
0.668701,0.366455,0.699463,9.389313,-17.213741,37.381680
0.750244,0.323975,0.708496,6.206107,-42.687023,26.282442
0.730957,0.228027,0.690430,29.954199,-35.381680,12.015267
0.679443,0.282715,0.634766,34.015266,-26.580153,11.465649
0.702637,0.352783,0.591309,19.755726,-22.129770,21.610687
0.702148,0.306641,0.598389,-2.419847,-24.160305,30.229008
0.757813,0.309814,0.613037,-0.740458,-21.106871,32.679390
0.809082,0.326416,0.563721,4.847328,-21.038168,26.580153
0.719238,0.308105,0.567627,-1.961832,-27.000000,26.648855
0.819580,0.320557,0.589844,1.488550,-34.549618,24.022902
0.869873,0.361084,0.582275,11.572519,-35.351147,20.190840
0.878174,0.393311,0.568115,9.916031,-41.160305,19.984734
0.983887,0.435791,0.510742,10.259542,-72.679390,27.900763
1.000977,0.351563,0.585205,-2.396947,-49.854961,30.358778
0.944580,0.273926,0.519775,-18.045801,-31.480917,23.832062
0.837402,0.203125,0.446289,-15.053435,-35.129772,19.022902
0.824951,0.181885,0.467285,-6.236641,-41.274811,27.549618
0.876221,0.240234,0.513916,1.343511,-47.099236,34.145039
0.959717,0.260742,0.471924,-3.297710,-61.557251,37.465649
0.936035,0.171631,0.406006,-20.694656,-65.526718,40.564884
0.940186,0.172852,0.346191,-18.503817,-66.015266,47.648853
0.912842,0.189697,0.324951,-16.641222,-79.595421,46.862595
0.973145,0.201904,0.347412,-19.549618,-72.916031,38.923664
1.171631,0.195557,0.114502,-33.083969,-47.946564,28.045801
1.023926,0.079102,0.182373,-30.236641,-20.793894,15.572519
0.979004,0.053711,0.229492,-7.435114,-12.854961,12.717557
1.008057,0.121826,0.277832,-27.083969,-35.221375,16.946566
0.964355,0.108643,0.246826,-40.977100,-58.786259,28.297710
0.923340,0.127197,0.172607,-34.450382,-62.221375,40.908398
0.988281,0.044189,0.115479,-30.946566,-54.862595,40.671757
1.129639,-0.125732,-0.074463,6.977099,0.152672,7.381680
1.018311,-0.000732,0.217529,47.267174,25.916031,-10.931297
0.993408,0.046875,0.157227,27.343512,-0.885496,-4.702290
1.064209,0.069336,0.195313,7.129771,-13.862596,2.305344
1.029785,0.030518,0.208252,16.435114,-18.389313,-2.160305
1.007568,0.022217,0.100830,22.648855,-17.534351,-1.221374
0.967529,0.097412,0.104248,22.458015,-17.488550,3.656489
0.984619,0.128906,0.157227,10.488549,-26.877863,12.412213
1.038818,0.060547,0.130615,9.931297,-26.061069,8.908397
1.055664,0.042480,0.083252,16.618320,-8.374045,6.679389
1.086426,0.002197,0.084717,19.847328,7.099236,2.824427
0.942139,-0.058350,0.004395,9.259542,9.511451,-2.702290
1.009277,-0.020996,0.040771,-1.488550,-3.702290,1.152672
1.005127,0.013672,0.041260,3.099237,0.595420,-3.221374
1.026855,0.030273,0.090820,3.167939,3.625954,-3.847328
0.989258,0.058594,0.166016,-5.450382,-8.282443,-0.564885
1.032959,-0.007324,0.106934,-0.305344,-20.404581,-0.748092
1.031982,0.029297,0.072021,0.221374,-10.671756,-4.198473
0.995117,0.070068,0.087891,0.282443,-3.786260,-4.450382
1.011475,0.031250,0.132080,4.572519,-3.809160,-3.816794
0.992432,0.060791,0.079590,10.198473,-0.725191,-1.770992
1.022217,0.058838,-0.012695,5.885496,0.832061,-2.183206
1.003418,0.048340,0.040283,-0.900763,1.847328,0.396947
1.031738,0.017578,0.082031,1.312977,0.488550,0.244275
1.017090,0.056641,0.064209,1.893130,-1.656489,-0.946565
1.004150,0.068604,0.054199,-4.007634,-13.862596,2.595420
1.025146,0.047607,0.024902,-6.618320,-18.770992,3.297710
1.009033,0.039551,0.020508,-1.908397,-15.946565,4.305344
1.020752,0.040283,0.000732,-4.786260,-12.832061,3.740458
0.995850,0.081055,0.034180,-16.083969,-15.358779,7.305344
1.015137,0.051025,0.042480,-17.320610,-11.641221,9.625955
1.013184,0.009277,0.064941,-11.190840,-9.435115,7.702290
1.041748,-0.015381,0.063965,-4.343512,-12.977099,4.007634
1.070557,-0.009033,-0.016602,-4.908397,-11.847328,0.053435
1.049072,-0.021973,-0.038330,-3.366412,-6.160306,-5.229008
0.973389,0.031738,-0.021484,-4.061069,-3.603053,-2.755725
0.986084,0.019043,-0.029785,-7.282443,-9.343512,2.351145
0.984131,0.039307,-0.028564,-10.442748,-13.801527,2.473282
0.994629,-0.013672,0.005127,-7.664122,-14.648855,4.839694
0.996582,0.027100,-0.001465,-2.374046,-12.312977,4.061069
1.025635,0.032471,-0.003418,0.442748,-3.885496,4.396946
0.968506,0.046387,-0.072754,1.458015,-1.343511,3.557252
0.974365,0.056885,-0.071289,-11.503817,-7.160306,9.969465
1.011963,0.005371,-0.005859,-15.236641,-12.076336,12.473283
1.072266,-0.014404,0.011963,-8.465649,-3.916031,9.343512
1.096436,-0.027588,-0.010742,-1.473282,-1.801527,4.236641
0.999023,0.002197,-0.067871,-0.954198,-6.305344,4.603054
0.983398,0.006348,-0.044922,1.190840,-4.908397,10.503817
1.007324,0.012939,-0.007080,8.900764,2.450382,13.351145
1.045410,-0.008789,-0.023926,14.778625,15.167939,12.893129
1.052734,-0.047607,-0.003906,19.290077,19.259542,8.572519
0.950439,-0.018311,-0.058350,12.610687,23.183207,9.404580
0.960938,-0.009033,0.000244,6.274809,29.877863,11.206107
1.011963,-0.052002,0.013428,8.312977,25.427481,8.496183
0.998291,-0.049805,-0.005859,3.931298,14.282443,4.961832
1.021240,-0.030518,-0.013184,-2.328244,5.969466,3.572519
1.041504,-0.059326,0.016357,-6.404580,-3.145038,1.022901
1.068359,-0.049316,0.049316,-4.656488,-10.969465,-2.740458
1.022217,-0.039795,0.004150,0.068702,-8.129771,-3.969466
0.997803,-0.016846,-0.031006,-3.458015,-7.740458,-1.435115
1.018555,-0.030762,-0.003662,-9.007633,-9.114504,0.175573
1.013428,-0.034668,0.009521,-3.793893,-7.480916,0.961832
1.000000,-0.026367,-0.009033,-3.114504,-5.603054,4.343512
0.985840,-0.030762,-0.035156,-5.000000,-0.076336,6.213740
1.001953,-0.063965,0.003662,-5.259542,1.061069,5.358778
1.003662,-0.068604,0.022705,-3.969466,0.816794,1.748092
1.026123,-0.058838,0.028320,0.549618,-2.335878,-0.595420
0.997314,-0.038574,-0.030518,1.969466,-1.435115,0.022901
1.000977,-0.061523,-0.029053,-3.610687,-0.122137,0.236641
1.017578,-0.051758,-0.019775,-3.320611,1.564885,-0.610687
1.004395,-0.048584,-0.011719,-4.809160,3.022901,0.778626
1.036377,-0.042725,-0.023193,-2.366412,3.030534,1.396947
1.001465,-0.056885,-0.010010,-3.977099,1.839695,-1.076336
1.004639,-0.046875,-0.016113,-4.755725,0.587786,-0.839695
0.990234,-0.049805,-0.008057,-5.320611,0.732824,0.717557
1.007324,-0.061768,0.005615,-4.343512,1.335878,0.404580
1.004395,-0.056396,0.000977,-2.793893,-0.259542,0.404580
1.008789,-0.048096,-0.010498,-3.732824,-0.877863,1.305344
1.033203,-0.054443,-0.012695,-3.793893,2.335878,-0.282443
1.018066,-0.045166,-0.026367,-4.664122,1.198473,-0.603053
1.019287,-0.053955,0.010986,-6.282443,-0.954198,-0.015267
1.005859,-0.046875,-0.001465,-2.984733,0.282443,-1.458015
1.003662,-0.048828,-0.014893,-3.305344,1.687023,-1.946565
1.003662,-0.049805,-0.019287,-6.229008,-0.610687,-0.458015
1.016602,-0.064209,0.010254,-5.847328,-1.129771,-0.236641
1.009766,-0.047363,-0.005371,-3.763359,-1.015267,-1.854962
1.012451,-0.039307,-0.022705,-3.969466,-2.435115,-1.503817
0.994141,-0.045898,-0.027100,-6.496183,-1.534351,-0.030534
1.015137,-0.044189,-0.006836,-6.351145,0.244275,0.251908
1.015869,-0.055420,-0.005127,-5.099236,-0.022901,-0.091603
1.015381,-0.055176,0.001465,-5.358778,-1.610687,-0.068702
1.011475,-0.042236,-0.011963,-5.305344,-1.480916,-0.450382
1.004883,-0.039551,-0.024414,-5.297710,0.366412,-0.419847
1.000977,-0.047607,-0.007324,-6.465649,-0.603053,0.145038
1.008301,-0.055420,-0.000732,-5.534351,-1.908397,0.122137
0.995850,-0.062256,-0.012451,-4.946565,-3.083969,-0.045802
1.000488,-0.038818,-0.035645,-6.374046,-3.870229,0.603053
1.002686,-0.053467,-0.012939,-6.908397,-3.572519,2.213740
1.007568,-0.045166,-0.029541,-6.770992,-1.694656,2.435115
1.012939,-0.058350,-0.019775,-6.717557,-0.938931,1.969466
1.004883,-0.054932,-0.019775,-7.625954,-2.305344,1.755725
1.016846,-0.061768,-0.019775,-6.656488,-4.114504,1.106870
1.019043,-0.056885,-0.015869,-6.137404,-1.312977,0.694656
1.011963,-0.052002,-0.028076,-3.839695,0.816794,0.236641
1.002197,-0.055908,-0.033936,-6.083970,2.595420,0.709924
1.000000,-0.058105,-0.030029,-5.847328,5.022901,1.221374
1.002197,-0.056641,-0.017578,-3.381679,10.664123,2.702290
1.014404,-0.059814,-0.031494,0.549618,16.610687,3.557252
1.010254,-0.057373,-0.028076,-1.152672,20.213741,4.389313
1.004883,-0.066895,-0.010254,-1.725191,24.106871,4.832061
1.006348,-0.086182,0.005127,0.236641,30.923664,3.801527
0.987549,-0.070557,0.025146,3.167939,37.488548,3.114504
1.019531,-0.072021,0.065918,5.068702,40.175571,1.854962
1.043457,-0.053223,0.074463,5.549618,43.503819,-1.916031
1.020752,-0.055420,0.066895,1.580153,50.687023,-3.198473
1.019775,-0.076660,0.125000,-5.152672,57.503819,-0.885496
1.032959,-0.090576,0.212402,0.343511,64.534348,-1.610687
1.015869,-0.069824,0.182129,7.000000,66.541985,-5.412214
1.000488,-0.062256,0.210205,5.618320,66.076332,-6.725191
1.008545,-0.048096,0.240479,5.106870,64.038170,-8.282443
0.994629,-0.041016,0.291016,4.442748,64.893127,-7.809160
1.007568,-0.044678,0.308350,7.694656,66.763359,-7.732824
0.996826,-0.027588,0.314209,9.122137,71.458015,-10.877863
0.978760,-0.013916,0.330811,5.748092,79.725189,-14.351145
0.990723,-0.022705,0.407227,9.580153,88.114502,-17.519083
0.972412,-0.006104,0.438232,15.206107,97.732826,-17.595419
0.966553,0.049805,0.461426,13.648855,101.763360,-18.351145
0.904053,0.039307,0.473145,3.954198,111.702290,-18.916031
0.884033,0.018311,0.546143,12.106871,122.076330,-19.396946
0.846924,0.025635,0.620361,22.832062,132.351150,-20.274809
0.808350,0.040283,0.653076,17.221375,127.114500,-20.419847
0.766846,0.055664,0.649658,6.534351,129.519090,-19.190840
0.709473,0.025879,0.802734,10.748092,136.511440,-16.755726
0.695068,0.083252,0.770996,29.007633,141.893130,-15.763359
0.633057,0.089111,0.816895,9.190840,128.755720,-16.946566
0.579834,0.089600,0.861816,-5.725191,107.786260,-15.274809
0.555176,0.105469,0.920166,5.725191,104.648860,-11.335877
0.501709,0.140625,0.927979,9.083969,107.771000,-10.900764
0.482178,0.145996,0.950439,-4.740458,97.000000,-11.122137
0.436768,0.088379,1.079346,1.526718,91.595421,-9.633588
0.405273,0.142822,1.025635,9.664123,81.404579,-10.732824
0.360596,0.170654,1.010010,1.740458,80.984734,-12.557252
0.329834,0.130615,1.069092,4.549618,78.213737,-9.358779
0.288086,0.157471,1.052734,11.580153,70.053436,-9.061069
0.254395,0.169434,1.025879,-1.145038,54.916031,-11.206107
0.235596,0.161865,1.082275,-4.129771,50.923664,-11.519084
0.208252,0.146973,1.089600,-2.076336,44.335876,-10.366412
0.205078,0.159424,1.055908,-2.305344,35.251907,-6.870229
0.183594,0.164307,1.056152,-11.458015,28.900763,-7.297710
0.148682,0.152344,1.057861,-17.816793,23.396946,-9.244275
0.162354,0.158447,1.056152,-13.755725,22.335878,-9.099236
0.144775,0.151123,1.078613,-7.931298,28.893129,-8.503817
0.118652,0.153564,1.057861,-17.503817,22.595419,-7.870229
0.129150,0.126953,1.117920,-19.091602,15.496183,-7.267176
0.116211,0.132080,1.101318,-12.595420,15.923664,-8.725191
0.109375,0.138672,1.101807,-8.740458,12.297709,-8.152672
0.114746,0.148438,1.102051,-9.610687,6.335878,-4.366412
0.128662,0.117920,1.142578,-4.946565,-0.007634,-0.931298
0.121826,0.132324,1.090088,-2.183206,-3.480916,-0.076336
0.116455,0.115967,1.084229,3.083969,0.877863,0.251908
0.110840,0.146729,1.049805,2.236641,3.717557,1.045802
0.098389,0.152588,1.045898,-2.351145,3.335878,0.801527
0.091309,0.156250,1.062012,-5.694656,1.145038,1.725191
0.115234,0.140625,1.079346,-2.526718,4.916030,1.916031
0.104980,0.145508,1.094482,1.519084,8.129771,0.832061
0.094727,0.140381,1.068848,-2.068702,3.488550,0.007634
0.079102,0.166260,1.070068,-7.778626,-3.770992,2.374046
0.115234,0.139893,1.088379,-9.007633,-3.572519,2.923664
0.129150,0.127441,1.106445,-2.343511,4.190840,0.595420
0.109863,0.152100,1.075195,-2.038168,4.572519,-0.687023
0.108154,0.151367,1.075195,-9.206107,-1.236641,1.122137
0.109863,0.145752,1.094971,-8.763359,-0.152672,1.259542
0.109375,0.147705,1.088623,-4.809160,1.610687,0.488550
0.102539,0.153564,1.075684,-4.022901,0.160305,0.847328
0.107178,0.143066,1.082275,-7.206107,-2.587786,1.259542
0.093506,0.144775,1.093018,-7.648855,-3.755725,1.847328
0.092529,0.152100,1.079102,-4.885496,-0.671756,4.564886
0.115234,0.102783,1.077881,-6.473282,-0.442748,2.603053
0.106445,0.140381,1.081543,-5.603054,-1.916031,1.137405
0.091309,0.151123,1.056885,-7.358778,-4.564886,2.083969
0.124268,0.140869,1.072510,-8.366412,-1.816794,3.282443
0.124268,0.123535,1.090576,-5.030534,3.068702,1.389313
0.109131,0.146729,1.077393,-5.114504,3.519084,0.916031
0.129150,0.128418,1.093506,-5.687023,0.099237,0.312977
0.131104,0.126953,1.087158,-4.473282,0.809160,-1.114504
0.117188,0.133301,1.070068,-4.259542,3.335878,-2.167939
0.106689,0.155762,1.090332,-5.381680,3.175573,-0.801527
0.114990,0.135742,1.078857,-4.839694,2.427481,0.572519
0.116211,0.134033,1.087891,-2.351145,2.503817,-0.496183
0.098877,0.143066,1.095703,-2.480916,-1.343511,-0.801527
0.099609,0.146729,1.069580,-3.977099,-3.992366,0.229008
0.111084,0.126709,1.081787,-1.427481,-2.809160,-0.740458
0.124023,0.144043,1.081055,-0.442748,-0.893130,0.221374
0.122559,0.153809,1.075684,-2.564885,-2.244275,-0.320611
0.109863,0.157471,1.072510,-4.564886,-1.633588,0.809160
0.105713,0.141846,1.078857,-5.488550,0.152672,0.007634
0.103516,0.153320,1.087402,-3.679389,0.946565,0.770992
0.117676,0.158936,1.062256,-5.122138,-2.312977,0.099237
0.119873,0.152832,1.087402,-5.603054,0.358779,-0.839695
0.125732,0.135254,1.076416,-3.854962,4.007634,-0.732824
0.128662,0.143799,1.071777,-3.473282,4.511450,-1.549618
0.115723,0.148438,1.067871,-4.175572,3.282443,-1.198473
0.128418,0.142822,1.075195,-4.916030,3.694656,0.137405
0.089600,0.158691,1.078369,-6.038168,3.251908,-0.389313
0.114990,0.137207,1.092041,-5.770992,1.961832,-0.580153
0.121338,0.139648,1.087891,-1.969466,3.473282,-1.625954
0.124023,0.143311,1.074219,-0.045802,4.854962,-2.282443
0.108887,0.148438,1.073486,-0.160305,6.297710,-2.053435
0.107422,0.159424,1.082275,-0.015267,7.580153,-2.358779
0.106934,0.159912,1.082275,-2.190840,5.961832,-2.954198
0.093750,0.161133,1.077637,-5.625954,3.404580,-2.106870
0.085938,0.167236,1.070801,-9.068703,0.618321,-0.175573
0.087402,0.171631,1.076904,-9.847328,3.526718,0.870229
0.090820,0.148682,1.090088,-8.862596,4.137404,-0.664122
0.087646,0.153320,1.088867,-7.152672,2.419847,-0.007634
0.098145,0.131592,1.088867,-6.274809,0.778626,-1.557252
0.089844,0.154297,1.084229,-3.969466,2.122137,-2.274809
0.078857,0.155273,1.079346,-2.557252,4.587786,-1.274809
0.097900,0.145264,1.088623,-3.900763,4.000000,-1.335878
0.095215,0.141113,1.078369,-5.358778,2.343511,-1.465649
0.082764,0.159424,1.095947,-3.694656,3.320611,-0.335878
0.085205,0.162109,1.091553,-3.045802,1.656489,-0.305344
0.094727,0.147949,1.079102,-4.312977,-1.534351,-0.763359
0.097168,0.152832,1.087891,-5.473282,1.664122,-0.236641
0.099854,0.161133,1.062744,-7.984733,4.580153,1.030534
0.090332,0.156982,1.067627,-11.847328,3.160305,0.679389
0.086914,0.146729,1.076904,-12.534351,3.862595,-0.595420
0.079346,0.143311,1.113525,-5.824428,5.236641,-1.000000
0.080078,0.154297,1.097412,-2.206107,4.824428,-0.679389
0.072510,0.156006,1.058350,-2.648855,4.061069,-0.603053
0.066895,0.153076,1.065430,-7.335878,-0.244275,-0.541985
0.074219,0.144531,1.085449,-8.519084,-1.625954,0.312977
0.076904,0.144775,1.089355,-6.145038,-2.190840,0.496183
0.084961,0.143311,1.071045,-6.061069,-1.687023,0.625954
0.079102,0.144775,1.064453,-7.511450,-2.793893,0.786260
0.082520,0.152100,1.098389,-7.450382,-2.534351,0.564885
0.092529,0.150146,1.087402,-5.702290,-1.282443,0.786260
0.077881,0.140625,1.087158,-5.595420,0.679389,1.488550
0.077393,0.134521,1.087891,-5.290076,1.541985,0.893130
0.074463,0.145020,1.090088,-5.458015,-0.862595,0.664122
0.078613,0.143311,1.086426,-4.564886,-0.595420,1.916031
0.074707,0.138916,1.085449,-1.534351,1.832061,3.274809
0.084229,0.151123,1.060791,-1.083969,2.396947,4.213740
0.109375,0.166260,1.013184,-2.534351,3.114504,1.519084
0.079590,0.130615,1.071533,-9.671756,8.496183,0.274809
0.076416,0.134521,1.083984,-10.755725,17.496183,-1.801527
0.065918,0.132813,1.102295,-10.381680,25.717558,-4.564886
0.062256,0.134766,1.106934,-5.267176,28.160305,-4.496183
0.064697,0.144287,1.120117,0.458015,28.740458,-1.381679
0.042725,0.139160,1.106201,-1.053435,35.801525,-0.870229
0.004395,0.135498,1.077637,-4.198473,41.007633,-2.358779
0.002441,0.140381,1.054199,-9.862596,45.847328,-5.717557
0.050537,0.169678,1.076660,-8.473283,64.503815,-12.832061
-0.066650,0.166016,1.066895,-12.358779,83.450378,-16.366413
-0.215332,0.090576,0.984131,-25.572519,73.961830,-5.045802
-0.155273,0.115967,1.046875,-25.931297,75.427483,-5.274809
-0.155762,0.121582,1.067139,-19.702290,96.167938,-10.374045
-0.189209,0.112793,1.043945,-18.587786,123.847330,-17.412214
-0.332520,0.106201,0.993408,-25.694656,126.320610,-9.633588
-0.347412,0.071289,0.956543,-34.106869,116.274810,-9.671756
-0.381348,0.084229,1.016113,-30.374046,127.259540,-17.824427
-0.410400,0.050537,1.014160,-23.854961,136.725190,-15.671756
-0.531494,0.085693,0.897217,-37.847328,124.068700,-2.717557
-0.532959,0.033447,0.881592,-44.603054,122.045800,-6.404580
-0.596436,0.023438,0.917480,-34.793892,139.938930,-4.961832
-0.661377,0.037598,0.910156,-25.740458,140.725190,3.022901
-0.715088,0.010010,0.825195,-18.732824,146.122130,4.610687
-0.763184,-0.037354,0.716553,-15.465649,147.244280,-2.091603
-0.874756,-0.054199,0.732910,-14.435115,136.053440,-10.648855
-0.846436,-0.037842,0.672852,-6.015267,124.793890,-9.145039
-0.816406,-0.006104,0.683105,4.129771,113.633590,-3.038168
-0.886475,0.000977,0.611084,18.534351,105.427480,-1.763359
-0.859863,-0.023438,0.453369,22.450382,105.572520,-2.465649
-0.929932,0.018799,0.382324,10.122137,87.351143,-2.526718
-0.937988,0.030762,0.405029,-4.381680,53.679390,-4.053435
-0.938965,-0.019043,0.390381,-2.389313,44.839695,-4.633588
-0.971680,-0.011230,0.331543,-6.167939,46.977100,-6.824428
-1.018799,-0.017334,0.361816,-10.763359,47.351147,-8.725191
-0.968506,-0.019043,0.293945,-8.198473,45.519085,-8.595420
-0.965088,-0.044189,0.302246,-15.175572,39.061069,-10.679389
-0.968262,-0.037842,0.336670,-12.099236,44.099236,-12.061069
-0.951660,-0.055176,0.339111,-2.068702,54.251907,-10.129771
-0.947510,-0.031738,0.281006,1.916031,52.053436,-6.458015
-0.962891,-0.019287,0.284668,2.580153,39.007633,-1.671756
-0.982910,-0.036865,0.293213,5.198473,30.282442,4.305344
-1.010010,-0.020508,0.252686,7.206107,21.511450,8.175572
-0.963867,-0.081787,0.223633,9.725191,20.122137,5.633588
-0.971924,-0.003174,0.158936,2.419847,14.427481,3.297710
-0.965088,-0.040039,0.200928,-4.114504,8.099236,5.351145
-0.955811,-0.030029,0.194092,2.603053,18.091602,5.145038
-0.967041,-0.010254,0.145996,4.702290,27.595419,1.091603
-0.993164,-0.013184,0.135254,-5.305344,19.839695,-6.312977
-0.997559,-0.027100,0.192627,-7.740458,11.900764,-5.381680
-0.981689,-0.013672,0.183105,-4.511450,12.267176,0.137405
-0.974854,-0.021240,0.169189,0.305344,18.870230,3.068702
-1.000977,-0.018066,0.107910,-3.076336,14.389313,2.717557
-1.040039,-0.004395,0.156494,-11.458015,-0.320611,3.832061
-1.013916,-0.017090,0.190430,-7.167939,-1.015267,7.748092
-1.003174,-0.020264,0.168457,0.038168,4.282443,12.282443
-0.989990,-0.035400,0.099609,3.030534,8.213740,7.847328
-0.981689,0.000488,0.077148,-4.312977,5.740458,3.229008
-0.989014,-0.000732,0.115479,-8.236641,-0.106870,-0.213740
-0.989014,-0.004395,0.147461,-5.648855,-1.106870,-1.427481
-0.980225,-0.007080,0.145996,-4.198473,4.549618,2.030534
-0.968018,0.004639,0.087402,-3.610687,8.526717,2.633588
-0.983154,-0.011963,0.086182,-9.900764,5.068702,-1.412214
-1.009033,-0.021973,0.146973,-10.374045,4.106870,-1.847328
-1.001709,-0.007080,0.135986,-5.404580,3.778626,0.885496
-0.999268,0.016602,0.132080,-4.625954,4.007634,2.938931
-0.999268,0.013428,0.093994,-6.068702,-2.580153,1.977099
-0.996582,-0.008545,0.110352,-9.007633,-4.656488,1.190840
-0.993408,-0.005615,0.143799,-8.206107,-2.664122,2.923664
-0.986572,-0.008057,0.113525,-4.732824,1.732824,4.687023
-0.988037,-0.006592,0.104492,-5.664122,1.320611,3.419847
-0.979004,-0.001953,0.104736,-9.335877,-0.076336,1.015267
-0.994141,0.007568,0.126221,-13.106871,-2.404580,0.580153
-0.994873,-0.007324,0.150635,-9.679389,-2.687023,2.091603
-0.985107,-0.011963,0.107178,-4.152672,5.000000,1.694656
-0.989258,0.012939,0.091797,-6.267176,5.526718,0.893130
-0.999268,0.002686,0.133057,-9.206107,3.152672,-1.984733
-1.008057,0.002441,0.149658,-6.320611,1.526718,-1.190840
-0.975586,0.004639,0.113281,-3.351145,1.709924,0.877863
-0.986328,-0.001221,0.096924,-5.335878,0.114504,-0.725191
-0.984619,0.005127,0.114990,-7.465649,-0.435115,-1.160305
-0.985352,0.009766,0.135498,-5.274809,0.167939,-0.709924
-0.989990,0.004150,0.130859,-3.618321,-2.435115,0.145038
-0.993652,0.006104,0.117188,-4.564886,-4.618320,0.816794
-1.000488,0.007080,0.121826,-4.671756,-3.167939,1.656489
-0.985840,-0.002930,0.120850,-4.419847,-0.374046,2.061069
-0.994385,0.003906,0.126221,-4.877862,-0.137405,1.129771
-0.982178,0.002686,0.126953,-6.229008,-1.328244,0.946565
-0.995361,0.004883,0.135254,-5.641222,-0.908397,0.122137
-0.999756,0.017578,0.137451,-5.213740,-1.809160,1.458015
-0.992676,0.021484,0.124268,-6.137404,-2.015267,2.572519
-0.994385,0.016846,0.135498,-5.946565,-0.267176,4.137404
-0.985840,0.006348,0.139404,-4.732824,2.160305,5.267176
-0.973389,-0.002441,0.108887,-3.465649,4.824428,3.343511
-0.987061,0.006348,0.118652,-6.137404,2.786260,0.000000
-0.993408,0.013428,0.128174,-7.068702,1.770992,-1.282443
-1.000000,0.019287,0.132324,-4.786260,4.221374,-0.129771
-0.999023,0.014404,0.123535,-4.229008,5.244275,0.732824
-0.997559,0.020020,0.115479,-4.801527,4.450382,0.282443
-0.989746,0.015869,0.120850,-5.755725,2.305344,-0.427481
-0.990234,0.012939,0.119873,-5.458015,2.870229,-1.099237
-0.987305,0.012207,0.125732,-5.175572,4.236641,-0.099237
-0.990967,0.012207,0.123047,-4.122138,5.061069,0.786260
-0.982666,0.016113,0.106689,-4.687023,3.251908,0.916031
-0.994873,0.010742,0.106445,-5.656488,2.984733,-0.229008
-1.000977,0.015625,0.108643,-5.664122,0.900763,-1.305344
-0.988281,0.014648,0.105469,-5.290076,1.687023,-0.633588
-0.990479,0.021240,0.125488,-4.229008,2.473282,1.725191
-1.002930,0.020508,0.111572,-3.366412,1.450382,1.854962
-0.987061,0.015137,0.096680,-9.137404,-3.664122,1.687023
-0.992920,0.007080,0.121338,-5.526718,0.671756,0.625954
-0.990723,0.016846,0.113525,-3.641221,0.129771,1.465649
-0.996094,0.016846,0.115479,-2.702290,-0.572519,1.190840
-0.987061,0.024170,0.112793,-3.045802,0.022901,0.427481
-0.997070,0.009521,0.093750,-3.229008,-0.580153,-0.717557
-0.993896,0.021973,0.101074,-4.755725,-3.282443,-0.083969
-0.998291,0.007080,0.117676,-4.343512,-2.786260,0.702290
-0.996094,0.012939,0.116699,-3.519084,-2.137405,-0.175573
-0.973145,0.011230,0.136963,0.526718,-3.694656,-0.984733
-1.008301,-0.007080,0.119873,2.022901,-4.610687,-3.305344
-0.968750,0.006836,0.105713,6.687023,-3.061069,-6.183206
-0.977295,0.027588,0.089111,-1.381679,-7.916030,-8.213740
-1.006592,0.072998,0.117432,-7.274809,-12.832061,-4.908397
-1.092529,0.122559,0.040771,-3.923664,-2.206107,4.038168
-0.981201,-0.024658,0.139893,-0.366412,-0.610687,5.923664
-0.934570,0.039795,-0.026611,-7.473282,4.595420,4.694656
-1.006348,0.001221,0.186768,-13.648855,1.709924,8.320611
-1.017090,-0.022705,0.126465,-9.007633,-1.862595,2.870229
-0.983154,0.005127,0.056641,-21.442749,1.045802,0.099237
-0.952637,0.005859,0.096436,-39.320610,-3.229008,-7.160306
-0.924072,-0.005127,0.134033,-42.404579,-13.984733,-16.931297
-0.951172,-0.027344,0.213135,-26.190840,-0.312977,-15.122137
-0.970459,0.018799,0.366943,-12.160305,-4.816794,-2.816794
-0.944336,-0.024658,0.170654,-1.351145,-5.877862,2.465649
-0.902344,-0.103516,0.079590,3.053435,2.778626,-13.725191
-1.035156,0.041504,0.203613,-8.114504,0.175573,-11.297709
-0.969482,-0.012939,0.179932,6.076336,6.427481,-5.412214
-0.992676,0.021973,0.125244,8.091603,13.877863,-2.244275
-1.081543,0.027344,0.134033,5.183206,8.389313,-2.938931
-1.031494,-0.004150,0.145264,4.038168,3.366412,-0.030534
-1.010254,0.019287,0.158447,4.167939,-1.648855,3.213740
-0.984375,-0.030518,0.068115,-0.702290,-0.519084,2.122137
-0.886963,-0.026855,0.044189,-14.480916,8.694656,-5.809160
-0.977783,-0.037354,0.194580,-12.832061,9.877863,-6.832061
-1.045166,-0.024902,0.130615,1.511450,16.145039,-4.076336
-1.003418,-0.018799,0.038818,-7.129771,24.183207,0.229008
-0.955078,0.012451,0.085205,-22.198473,28.633587,0.000000
-0.956055,-0.031494,0.132568,-12.541985,30.862595,2.748092
