ax,ay,az,gx,gy,gz
-0.985352,0.017822,0.149658,-4.671756,1.854962,0.038168
-0.983398,0.028076,0.151367,-4.862596,2.030534,-0.137405
-0.991943,0.028809,0.160645,-4.694656,2.152672,0.007634
-0.990234,0.023438,0.141357,-4.854962,1.106870,0.099237
-0.987549,0.023438,0.148682,-4.854962,0.251908,0.114504
-0.989502,0.022217,0.157227,-4.839694,0.610687,0.007634
-0.983398,0.022705,0.163574,-4.839694,1.580153,-0.030534
-0.986816,0.028320,0.161133,-4.870229,2.152672,-0.068702
-0.988037,0.022461,0.152588,-4.809160,1.793893,0.007634
-0.985352,0.022949,0.150879,-4.816794,0.297710,-0.030534
-0.988525,0.030273,0.156250,-4.832061,-0.786260,0.076336
-0.989990,0.033203,0.156250,-4.885496,-0.404580,-0.061069
-0.985107,0.025146,0.160645,-4.732824,-0.297710,-0.091603
-0.989258,0.020996,0.152832,-4.755725,-0.244275,-0.145038
-0.992432,0.028320,0.155273,-4.832061,-0.114504,0.038168
-0.990479,0.024170,0.149902,-4.824428,0.702290,-0.061069
-0.994385,0.017334,0.159424,-4.870229,1.083969,-0.122137
-0.984619,0.026855,0.147217,-4.610687,1.610687,-0.251908
-0.986816,0.028564,0.152100,-4.854962,2.480916,-0.145038
-0.991699,0.025879,0.149902,-4.893130,1.557252,-0.206107
-0.992188,0.026123,0.147949,-4.954198,0.198473,-0.038168
-0.988037,0.025146,0.144531,-4.900764,0.068702,-0.076336
-0.986816,0.028564,0.156982,-4.755725,0.244275,-0.038168
-0.986816,0.024658,0.154541,-4.862596,-0.442748,-0.091603
-0.988525,0.026611,0.163574,-4.748092,-0.152672,0.076336
-0.987061,0.022217,0.156494,-4.839694,1.030534,-0.061069
-0.989502,0.018799,0.146729,-4.946565,1.290076,-0.145038
-0.988281,0.027100,0.153320,-4.984733,0.503817,-0.053435
-0.989746,0.020752,0.158203,-4.832061,0.717557,-0.068702
-0.986816,0.026855,0.158203,-4.832061,1.870229,-0.183206
-0.988770,0.022949,0.151855,-4.916030,2.549618,-0.145038
-0.999756,0.025391,0.147217,-4.778626,2.022901,0.183206
-0.993652,0.020508,0.146729,-4.885496,1.099237,-0.083969
-0.983398,0.019531,0.156250,-4.977099,-0.251908,0.045802
-0.991699,0.023682,0.149414,-4.938931,0.694656,0.007634
-0.992432,0.026367,0.150879,-4.916030,0.938931,-0.053435
-0.985352,0.028076,0.160156,-4.946565,-0.305344,0.030534
-0.991455,0.024658,0.151611,-4.893130,0.137405,0.015267
-0.987061,0.014893,0.149658,-4.755725,0.480916,0.068702
-0.991699,0.021484,0.153564,-4.725191,0.625954,-0.106870
-0.982910,0.028564,0.148926,-4.770992,1.496183,-0.083969
-0.990723,0.025146,0.153076,-4.732824,0.977099,-0.053435
-0.994873,0.023193,0.153076,-4.877862,0.152672,-0.061069
-0.987061,0.020752,0.154785,-4.809160,0.122137,0.030534
-0.989502,0.020508,0.154053,-4.832061,1.175573,0.061069
-0.984131,0.028564,0.158691,-4.870229,2.389313,-0.106870
-0.989502,0.025879,0.139893,-4.793893,1.870229,-0.251908
-0.992676,0.027344,0.154785,-4.755725,0.381679,-0.152672
-0.994873,0.023926,0.151855,-4.877862,-0.702290,-0.030534
-0.986328,0.024658,0.152344,-4.893130,-0.404580,-0.137405
-0.990967,0.024170,0.155518,-4.938931,0.900763,-0.175573
-0.990479,0.019287,0.153320,-4.702290,1.854962,0.068702
-0.990479,0.034424,0.150146,-4.862596,1.175573,-0.106870
-0.992676,0.030518,0.153076,-5.030534,0.137405,0.038168
-0.989746,0.024170,0.145996,-4.984733,0.557252,0.015267
-0.989258,0.025879,0.151123,-4.740458,1.381679,-0.083969
-0.988770,0.022217,0.165283,-4.778626,1.648855,-0.068702
-0.993652,0.031250,0.148926,-4.763359,1.412214,0.022901
-0.990234,0.027832,0.148438,-5.000000,0.618321,0.053435
-0.989990,0.025146,0.142578,-4.877862,-0.083969,0.007634
-0.986816,0.024902,0.153320,-4.847328,-0.022901,0.000000
-0.987061,0.026611,0.149902,-4.938931,0.251908,-0.129771
-0.987305,0.021729,0.144043,-4.847328,0.709924,0.160305
-0.987305,0.025391,0.153564,-5.015267,0.801527,0.175573
-0.983643,0.021240,0.153564,-4.671756,0.732824,0.068702
-0.993164,0.030518,0.158691,-4.786260,1.061069,-0.022901
-0.996338,0.025391,0.148926,-4.900764,0.580153,0.030534
-0.984619,0.026855,0.145264,-4.816794,0.030534,0.061069
-0.994629,0.032227,0.154053,-4.854962,0.251908,-0.045802
-0.986816,0.026123,0.159180,-4.854962,0.717557,-0.061069
-0.992432,0.019531,0.149902,-4.725191,2.053435,-0.068702
-0.988770,0.027100,0.141357,-4.786260,2.122137,0.030534
-0.989990,0.025635,0.152100,-4.824428,1.099237,-0.206107
-0.992676,0.020752,0.150635,-4.893130,-0.236641,-0.015267
-0.992676,0.030762,0.151123,-5.015267,-0.419847,-0.015267
-0.986328,0.021729,0.157227,-4.786260,0.847328,-0.053435
-0.991211,0.030518,0.147949,-4.854962,1.458015,-0.152672
-1.000732,0.025879,0.144531,-4.809160,0.862595,-0.175573
-0.988281,0.022705,0.144043,-4.938931,0.343511,-0.099237
-0.989502,0.025879,0.149658,-4.923664,0.167939,-0.083969
-0.985840,0.020020,0.160889,-4.854962,0.473282,-0.068702
-0.987549,0.031250,0.142578,-4.679389,0.946565,-0.061069
-0.992676,0.023438,0.151855,-4.877862,1.061069,-0.198473
-0.989502,0.022217,0.149902,-4.839694,0.687023,-0.229008
-0.984131,0.028320,0.149170,-4.755725,0.748092,-0.160305
-0.989990,0.027100,0.155029,-4.908397,0.900763,-0.030534
-0.990967,0.028564,0.146240,-4.793893,0.641221,-0.160305
-0.988037,0.023438,0.156738,-4.839694,0.145038,-0.045802
-0.985840,0.027832,0.151855,-4.923664,0.618321,-0.022901
-0.986572,0.026855,0.156494,-4.832061,0.610687,-0.145038
-0.991211,0.026611,0.148193,-4.877862,0.618321,0.022901
-0.987305,0.023682,0.154053,-4.984733,0.648855,-0.022901
-0.985840,0.023438,0.144531,-4.946565,0.992366,-0.076336
-0.988037,0.021484,0.151123,-4.984733,1.251908,-0.083969
-0.997803,0.029053,0.149658,-4.618320,1.374046,0.007634
-0.986084,0.026367,0.143066,-4.862596,0.954198,-0.091603
-0.988525,0.020508,0.143799,-4.893130,0.526718,-0.122137
-0.985596,0.027832,0.156982,-5.122138,0.480916,0.076336
-0.992432,0.026611,0.155518,-4.740458,0.809160,0.083969
-0.987305,0.024414,0.159912,-4.847328,1.152672,-0.007634
-0.992432,0.029785,0.145508,-4.908397,1.106870,0.038168
-0.986816,0.028809,0.146240,-4.816794,0.381679,-0.038168
-0.984131,0.022217,0.154785,-4.961832,0.381679,-0.022901
-0.979492,0.022949,0.156494,-4.755725,0.740458,0.038168
-0.987061,0.030518,0.148193,-4.770992,0.770992,-0.045802
-0.984619,0.026855,0.140381,-4.839694,1.236641,0.022901
-0.989502,0.026855,0.152100,-4.931298,0.961832,-0.091603
-0.986084,0.025879,0.151611,-4.786260,0.992366,-0.213740
-0.991455,0.023193,0.145264,-4.832061,0.923664,-0.091603
-0.988770,0.027832,0.153564,-4.770992,1.244275,-0.259542
-0.997314,0.027100,0.144531,-5.007634,1.114504,-0.038168
-0.994873,0.024170,0.153320,-4.748092,0.755725,-0.129771
-0.988525,0.023438,0.141357,-4.839694,0.526718,-0.099237
-0.986328,0.024658,0.151855,-4.870229,0.419847,-0.145038
-0.988770,0.019287,0.151855,-4.954198,0.671756,-0.297710
-0.987305,0.022705,0.148682,-4.862596,0.465649,-0.129771
-0.990479,0.020752,0.152588,-4.877862,0.465649,-0.061069
-0.994141,0.023926,0.148926,-4.832061,0.633588,-0.183206
-0.991455,0.024658,0.154785,-4.847328,0.946565,-0.137405
-0.989258,0.020996,0.149414,-4.984733,0.305344,-0.152672
-0.995361,0.027100,0.156738,-4.931298,0.015267,-0.053435
-0.991211,0.021240,0.152588,-4.992366,0.587786,-0.045802
-0.993164,0.017334,0.159180,-4.694656,1.320611,-0.038168
-0.985352,0.031250,0.152344,-4.740458,1.587786,0.122137
-0.992432,0.024414,0.149902,-4.877862,0.809160,0.007634
-0.990234,0.019043,0.139160,-4.786260,0.595420,0.015267
-0.988037,0.025635,0.145264,-4.816794,0.961832,-0.076336
-0.990234,0.022949,0.144531,-4.908397,1.083969,0.061069
-0.996338,0.023438,0.148926,-4.900764,0.893130,-0.015267
-0.988281,0.021973,0.140625,-4.916030,0.343511,0.068702
-0.990967,0.025146,0.151123,-4.793893,0.427481,0.045802
-0.988037,0.023682,0.148926,-4.839694,0.152672,0.083969
-0.990723,0.027832,0.166504,-4.847328,0.969466,0.015267
-0.986816,0.020264,0.148682,-4.847328,1.229008,0.045802
-0.987549,0.027832,0.141602,-4.916030,1.496183,-0.167939
-0.994873,0.024170,0.149414,-4.778626,1.717557,-0.068702
-0.989258,0.023193,0.148926,-4.694656,1.519084,-0.076336
-0.993652,0.028320,0.141113,-4.893130,0.740458,0.083969
-0.991699,0.023438,0.149902,-4.732824,0.419847,-0.129771
-0.986084,0.024902,0.148682,-4.816794,0.427481,-0.061069
-0.993652,0.027832,0.155029,-4.793893,0.549618,-0.015267
-0.987793,0.026367,0.152832,-4.809160,1.320611,-0.106870
-0.988525,0.027100,0.148926,-4.755725,1.595420,-0.282443
-0.985352,0.029785,0.150879,-4.740458,0.870229,-0.038168
-0.992920,0.021973,0.144043,-4.832061,0.404580,-0.091603
-0.992676,0.022461,0.150146,-4.870229,0.267176,-0.114504
-0.993164,0.026367,0.151123,-4.755725,0.129771,-0.007634
-0.985840,0.033447,0.148193,-4.938931,-0.114504,-0.068702
-0.993896,0.020264,0.148926,-4.862596,-0.022901,-0.190840
-0.990479,0.024170,0.147217,-4.839694,0.488550,-0.175573
-0.992432,0.023193,0.144043,-4.824428,0.641221,-0.083969
-0.989990,0.023193,0.142578,-4.801527,0.335878,-0.015267
-0.989502,0.025879,0.143066,-4.847328,-0.748092,-0.106870
-0.988037,0.020996,0.157227,-4.862596,-1.641221,0.000000
-0.986816,0.021240,0.145508,-4.938931,-1.511450,0.015267
-0.993652,0.024170,0.150391,-4.778626,-0.938931,0.114504
-0.988770,0.028076,0.150146,-4.839694,-1.396947,-0.022901
-0.988037,0.029297,0.147949,-4.992366,-2.312977,-0.068702
-0.983154,0.029297,0.148926,-4.923664,-1.954198,0.114504
-0.980957,0.026611,0.156982,-4.832061,-0.206107,0.015267
-0.988037,0.024170,0.154053,-4.824428,1.450382,0.122137
-0.991699,0.020752,0.159180,-4.954198,1.793893,0.045802
-0.988037,0.026123,0.155762,-4.946565,0.633588,0.061069
-0.989014,0.027588,0.154785,-4.885496,1.068702,0.083969
-0.985596,0.022217,0.154785,-4.908397,1.725191,-0.091603
-0.990234,0.024170,0.153809,-4.755725,2.335878,0.030534
-0.989746,0.024902,0.151123,-4.832061,2.435115,-0.114504
-0.990967,0.034424,0.152588,-4.885496,1.839695,-0.061069
-0.989502,0.015869,0.154053,-4.816794,0.618321,-0.015267
-0.990967,0.026855,0.146484,-4.870229,0.671756,-0.137405
-0.989502,0.023193,0.150391,-4.732824,2.496183,-0.015267
-0.988037,0.028809,0.153320,-4.847328,3.496183,-0.091603
-0.986572,0.025879,0.141113,-4.908397,2.175573,-0.022901
-0.992432,0.021240,0.142822,-4.946565,-0.282443,0.007634
-0.993652,0.025879,0.143066,-4.839694,-1.305344,-0.038168
-0.987793,0.022217,0.155029,-4.954198,-0.427481,0.068702
-0.981445,0.024414,0.162842,-4.633588,1.908397,0.000000
-0.987549,0.027100,0.157715,-4.740458,3.030534,-0.183206
-0.990723,0.025146,0.139404,-4.748092,1.969466,-0.221374
-0.992188,0.032227,0.142822,-4.778626,0.778626,-0.106870
-0.990479,0.026123,0.142334,-4.969466,0.374046,-0.007634
-0.990234,0.025146,0.148438,-4.900764,0.931298,-0.122137
-0.988770,0.023438,0.152344,-4.763359,1.511450,-0.251908
-0.994385,0.024414,0.145508,-4.778626,1.259542,-0.198473
-0.987305,0.021729,0.138428,-4.908397,0.259542,-0.015267
-0.992676,0.023193,0.140869,-4.916030,0.458015,0.030534
-0.989502,0.026367,0.151611,-4.847328,1.045802,-0.022901
-0.987305,0.029053,0.154053,-4.732824,1.961832,-0.122137
-0.990723,0.022461,0.149658,-4.870229,2.244275,-0.022901
-0.993408,0.024658,0.146729,-4.862596,1.931298,-0.015267
-0.993896,0.027344,0.141357,-4.992366,1.412214,-0.061069
-0.995850,0.016357,0.142822,-4.862596,1.328244,0.022901
-0.988037,0.028076,0.147217,-4.763359,0.938931,0.045802
-0.988037,0.027344,0.140137,-4.809160,0.687023,0.045802
-0.987549,0.023438,0.149414,-4.809160,0.847328,0.015267
-0.987549,0.025391,0.147217,-4.816794,1.343511,-0.053435
-0.990234,0.025635,0.134521,-4.847328,1.587786,0.083969
-0.991699,0.025146,0.143555,-4.816794,1.961832,-0.145038
-0.990234,0.023682,0.140381,-4.900764,1.183206,0.015267
-0.994873,0.025879,0.140137,-4.763359,0.717557,0.076336
-0.990479,0.022705,0.145020,-4.969466,0.679389,-0.114504
-0.986572,0.022949,0.138672,-4.946565,0.748092,0.007634
-0.995117,0.024170,0.144043,-4.923664,1.267176,-0.099237
-0.984863,0.025391,0.134766,-4.847328,1.442748,-0.053435
-0.989746,0.029297,0.145020,-4.893130,0.511450,-0.137405
-0.987793,0.024414,0.138184,-4.946565,0.099237,-0.076336
-0.988037,0.020996,0.138184,-4.992366,0.000000,-0.068702
-0.989502,0.027344,0.139648,-4.854962,0.335878,-0.083969
-0.994629,0.027100,0.145264,-4.969466,1.396947,-0.145038
-0.991699,0.023438,0.137695,-4.755725,1.564885,-0.221374
-0.997314,0.027100,0.142578,-4.793893,0.541985,-0.229008
-0.997314,0.029053,0.142578,-4.916030,0.251908,-0.061069
-0.987061,0.020996,0.139893,-4.717557,1.198473,-0.236641
-0.992676,0.021240,0.143799,-4.770992,1.801527,-0.206107
-0.997803,0.026123,0.138428,-4.847328,1.687023,-0.106870
-0.988525,0.024414,0.147217,-4.839694,1.343511,-0.091603
-0.989258,0.025146,0.131836,-4.847328,1.274809,-0.068702
-0.996094,0.024658,0.139893,-4.839694,1.068702,-0.030534
-0.994385,0.025146,0.133789,-4.770992,0.587786,-0.152672
-0.993896,0.025391,0.141846,-5.083970,0.335878,-0.122137
-0.991943,0.021484,0.140381,-4.893130,0.442748,-0.007634
-0.990479,0.030029,0.136475,-4.832061,0.480916,0.015267
-0.986084,0.019287,0.141357,-4.755725,1.061069,0.000000
-0.988770,0.028809,0.136230,-4.786260,1.030534,0.038168
-0.987061,0.023682,0.137939,-4.992366,0.328244,0.053435
-0.997559,0.015869,0.140625,-4.938931,0.496183,0.038168
-0.993164,0.025391,0.135498,-4.709924,1.534351,-0.083969
-0.991943,0.023193,0.140381,-4.824428,1.412214,0.114504
-0.989990,0.025879,0.137939,-4.893130,0.732824,-0.045802
-0.990234,0.021484,0.132568,-4.748092,0.755725,0.007634
-0.989502,0.019531,0.141602,-4.770992,0.816794,-0.015267
-0.986816,0.018311,0.135498,-4.870229,0.793893,0.030534
-0.985107,0.030762,0.139404,-4.916030,0.832061,0.030534
-0.993164,0.020508,0.135742,-4.946565,0.793893,-0.053435
-0.984131,0.022949,0.140137,-4.801527,0.595420,0.007634
-0.993652,0.023193,0.129395,-4.885496,0.870229,0.053435
-0.989014,0.029297,0.141602,-4.832061,1.435115,-0.083969
-0.984863,0.022949,0.138184,-4.702290,1.145038,-0.137405
-0.989990,0.022705,0.139160,-4.679389,1.564885,-0.221374
-0.995361,0.023438,0.140381,-4.740458,1.770992,-0.091603
-0.990234,0.021729,0.144043,-4.740458,1.664122,-0.068702
-0.993408,0.018555,0.138916,-4.732824,1.274809,-0.106870
-0.989990,0.026367,0.135742,-4.824428,0.450382,-0.328244
-0.989502,0.025391,0.140625,-4.816794,0.106870,-0.145038
-0.990479,0.025879,0.138428,-4.824428,0.198473,-0.137405
-0.986084,0.025391,0.132568,-4.748092,-0.503817,-0.145038
-0.991943,0.022949,0.136719,-4.809160,-1.175573,-0.038168
-0.987061,0.030029,0.145752,-4.954198,-1.091603,0.038168
-0.989014,0.024658,0.143555,-4.954198,-0.458015,-0.099237
-0.995605,0.020996,0.142334,-4.809160,0.374046,-0.106870
-0.994873,0.033447,0.137451,-4.954198,-0.511450,0.137405
-0.999268,0.021484,0.141602,-4.916030,-1.137405,-0.068702
-0.995361,0.022217,0.131592,-4.885496,-2.083969,0.030534
-0.996826,0.021973,0.139893,-4.969466,-5.198473,0.122137
-0.989990,0.035400,0.153564,-4.969466,-4.458015,0.160305
-0.985596,0.027588,0.152832,-4.977099,-2.114504,0.030534
-0.950684,0.014893,0.148193,-5.007634,-0.587786,0.305344
-0.991211,0.033691,0.146240,-4.885496,-0.358779,-0.137405
-0.990479,0.029785,0.143555,-4.832061,-1.511450,-0.251908
-0.990234,0.020996,0.146240,-5.167939,-6.419847,0.167939
-0.994629,0.029785,0.142578,-5.053435,-9.343512,0.145038
-0.976318,0.030273,0.162842,-4.854962,-5.717557,-0.022901
-0.992188,0.031006,0.143311,-5.015267,-6.519084,0.038168
-0.997070,0.018555,0.165527,-5.015267,-13.175572,0.183206
-1.003418,0.027344,0.155029,-5.152672,-19.557251,0.656489
-0.993896,0.025635,0.176758,-5.312977,-25.190840,0.587786
-0.986816,0.033936,0.202881,-0.748092,-37.809162,0.488550
-0.999512,0.032715,0.167480,-5.458015,-46.450382,0.984733
-0.966309,0.019287,0.242432,-6.007634,-48.679390,1.152672
-0.985596,0.021973,0.265137,-5.549618,-45.954197,1.038168
-1.008057,0.024170,0.235596,-5.977099,-60.633587,1.541985
-0.964600,0.011475,0.311035,-6.793893,-76.305344,1.954198
-0.957275,0.041016,0.342285,-7.145038,-80.664124,2.236641
-0.959717,0.118896,0.399414,-40.656490,-140.931300,15.175572
-0.959473,0.019287,0.420898,-32.893131,-150.526720,13.641221
-0.869873,0.000244,0.541748,-8.259542,-137.984730,4.694656
-1.120117,0.071533,0.662354,0.015267,-117.778630,6.358778
-0.829102,0.041260,0.626465,-8.091603,-99.091606,2.282443
-0.821045,0.035400,0.621338,-6.732824,-109.259540,2.045802
-0.722900,-0.002197,0.793701,-7.152672,-115.656490,3.389313
-0.726318,0.035400,0.763184,-2.167939,-108.312980,-1.969466
-0.674316,0.011963,0.778564,-7.122138,-96.290077,3.160305
-0.668213,0.036621,0.843994,-4.236641,-86.458015,0.091603
-0.648438,0.029053,0.849854,-4.450382,-82.038170,0.969466
-0.618652,0.036865,0.874512,-3.022901,-94.206108,-1.458015
-0.557617,0.047119,0.891357,-0.167939,-99.969467,-6.061069
-0.512207,0.023682,0.965820,-3.847328,-84.335876,-0.763359
-0.514893,0.059326,0.937256,-4.412214,-81.618324,-3.480916
-0.482178,0.063721,0.981689,-3.992366,-68.664124,-1.053435
-0.440430,0.013428,0.998535,-5.557252,-66.351143,0.732824
-0.407471,0.037598,1.004150,-4.534351,-65.015266,1.129771
-0.394531,0.047607,1.003662,-4.549618,-56.923664,-1.328244
-0.357666,0.042725,1.047119,-3.870229,-53.923664,-2.290076
-0.319092,0.044922,1.045166,-3.541985,-50.610687,-2.923664
-0.335938,0.037598,1.024658,-5.175572,-45.145039,-1.206107
-0.343506,0.062988,0.993652,-8.717557,-46.053436,4.458015
-0.263672,0.063965,1.054688,-7.938931,-46.946564,9.473283
-0.254150,0.030273,1.038818,-9.900764,-54.358780,11.519084
-0.250488,0.013428,1.083008,-8.091603,-52.526718,9.832061
-0.213623,0.052979,1.045898,-6.755725,-47.106869,6.961832
-0.181152,0.020508,1.094238,-8.633588,-39.396946,16.763359
-0.251953,0.110107,0.513428,-12.343512,-45.145039,20.534351
-0.325928,-0.036133,1.150146,-8.129771,-59.206108,3.320611
-0.168945,0.069092,1.126709,-3.687023,-44.862595,-9.496183
-0.111084,0.037842,1.104736,-3.969466,-28.816793,-10.236641
-0.082031,0.045898,1.101563,-5.396946,-24.648855,-5.702290
-0.120117,0.025391,1.084961,-5.557252,-26.167938,-2.595420
-0.076416,0.047363,1.129883,-5.847328,-26.343512,-0.763359
-0.043457,0.030029,1.094727,-4.725191,-27.534351,-0.480916
-0.063477,0.021240,0.996582,-6.755725,-31.847328,3.763359
-0.059082,0.056641,1.071777,-8.076336,-19.541985,8.389313
-0.048096,0.053223,1.177246,-5.213740,-4.145038,5.129771
-0.039551,0.020996,1.116943,-4.748092,-3.702290,4.526718
-0.043945,0.010010,1.093262,-3.709924,-5.152672,0.038168
-0.006348,0.027344,1.101563,-4.977099,-6.511450,7.564886
0.040283,0.070557,1.083984,-6.061069,-5.786260,12.312977
-0.057373,0.044678,1.136230,-4.427481,-7.045802,7.099236
-0.019775,0.037598,1.123535,-3.503817,-18.328245,2.687023
-0.040527,0.023193,1.112549,-1.496183,-24.068703,-0.290076
-0.087891,-0.007568,1.129395,-5.534351,-23.961832,8.106871
-0.038330,0.030518,0.863525,-7.923664,-44.770992,14.167939
-1.378174,0.291016,0.159912,2.580153,-28.412214,7.068702
0.101318,0.106689,1.099121,-7.312977,4.236641,0.007634
0.094727,0.046875,1.029785,-6.625954,3.305344,-1.404580
0.058105,0.049072,1.071777,-4.694656,1.374046,-0.114504
0.040283,0.030518,1.082520,-5.404580,1.450382,-0.045802
0.054688,0.040283,1.093506,-5.641222,1.007634,-0.053435
0.050781,0.040527,1.079590,-5.358778,1.328244,-0.022901
0.036377,0.038574,1.120850,-5.122138,1.000000,-0.076336
0.064697,0.038574,1.113037,-4.992366,1.076336,0.091603
0.040527,0.024902,1.118652,-5.458015,2.129771,-0.015267
0.029541,0.043701,1.111572,-6.603054,3.389313,0.244275
0.071533,0.019775,1.092773,-6.854962,3.129771,3.549618
0.093994,0.022461,1.090088,-4.366412,0.809160,12.053435
0.074707,0.043457,1.077881,-3.419847,5.526718,13.305344
-0.013916,0.015137,1.114746,-4.030534,0.786260,9.152672
0.052979,0.032471,1.122803,-4.877862,1.251908,7.786260
0.018311,0.044189,1.083984,-4.557252,0.770992,3.908397
0.031738,0.034912,1.091309,-4.992366,0.648855,2.137405
0.037109,0.025391,1.110352,-4.770992,0.801527,1.763359
0.045410,0.036133,1.108154,-4.816794,0.694656,1.175573
0.038086,0.040527,1.112549,-5.152672,0.992366,0.847328
0.034912,0.036377,1.105225,-4.938931,0.763359,-0.038168
0.037598,0.024658,1.094238,-4.969466,0.687023,0.129771
0.038574,0.028809,1.095215,-4.702290,0.679389,0.038168
0.033447,0.038574,1.106934,-4.946565,0.671756,0.022901
0.033447,0.024414,1.104736,-4.946565,0.648855,0.038168
0.038574,0.038818,1.101563,-4.877862,0.702290,-0.068702
0.044434,0.039307,1.098877,-4.900764,0.854962,-0.030534
0.038574,0.035645,1.105469,-4.969466,0.763359,-0.061069
0.048340,0.031494,1.104980,-5.000000,0.595420,-0.030534
0.039307,0.033203,1.102295,-4.893130,0.656489,0.022901
0.034180,0.028809,1.102539,-4.969466,0.664122,-0.007634
0.040039,0.033936,1.108398,-5.000000,0.534351,0.236641
0.040039,0.031250,1.104248,-4.908397,0.824427,0.160305
0.040283,0.035645,1.109863,-4.832061,0.641221,0.091603
0.039795,0.025879,1.104004,-4.816794,0.610687,-0.083969
0.047119,0.033447,1.102539,-4.801527,0.732824,-0.007634
0.031982,0.035400,1.104004,-5.022901,0.709924,0.022901
0.041992,0.031738,1.098877,-5.007634,0.648855,-0.038168
0.043945,0.031494,1.103027,-4.916030,0.587786,-0.106870
0.039063,0.033447,1.103271,-4.755725,0.885496,-0.106870
0.035645,0.029541,1.101318,-5.061069,0.603053,-0.114504
0.040283,0.035889,1.108643,-4.938931,0.809160,0.015267
0.044434,0.025146,1.104248,-4.763359,0.809160,-0.114504
0.035400,0.036133,1.105957,-4.954198,0.717557,-0.190840
0.041504,0.037598,1.099854,-4.778626,0.679389,-0.106870
0.040039,0.021729,1.106934,-4.862596,0.763359,-0.160305
0.042969,0.028076,1.099365,-4.709924,0.702290,-0.022901
0.042236,0.039551,1.096191,-4.854962,0.564885,-0.099237
0.043213,0.035645,1.105225,-4.977099,0.702290,-0.229008
0.036133,0.027588,1.103027,-4.954198,0.610687,-0.267176
0.031250,0.034912,1.098633,-4.786260,0.679389,-0.129771
0.041748,0.033447,1.107178,-4.977099,0.748092,0.000000
0.043213,0.036865,1.096680,-5.030534,0.526718,0.022901
0.040771,0.030518,1.097656,-4.954198,0.564885,-0.083969
0.036865,0.030518,1.109131,-4.977099,0.610687,-0.091603
0.047607,0.036621,1.104492,-5.030534,0.770992,0.053435
0.040039,0.029785,1.104004,-4.793893,0.679389,0.053435
0.039795,0.032227,1.101807,-4.984733,0.763359,-0.007634
0.044189,0.034912,1.100342,-4.900764,0.633588,-0.137405
0.047607,0.029785,1.099609,-4.793893,0.648855,-0.015267
0.033691,0.031250,1.108643,-4.862596,0.694656,0.114504
0.032715,0.028809,1.097412,-4.946565,0.679389,-0.007634
0.039063,0.032227,1.110840,-4.847328,0.648855,0.122137
0.038574,0.037354,1.097168,-4.877862,0.618321,0.206107
0.043457,0.034912,1.108154,-4.809160,0.755725,0.038168
0.034912,0.030518,1.105225,-4.809160,0.633588,-0.137405
0.036865,0.029785,1.108643,-4.862596,0.557252,-0.061069
0.044434,0.029541,1.104736,-4.877862,0.534351,-0.114504
0.038818,0.031982,1.095947,-4.824428,0.572519,0.038168
0.033203,0.028809,1.106201,-4.946565,0.687023,-0.053435
0.035645,0.032715,1.099609,-4.961832,0.625954,0.053435
0.035400,0.031982,1.110352,-4.870229,0.526718,-0.076336
0.041748,0.024902,1.104004,-4.923664,0.687023,-0.068702
0.033936,0.032959,1.101563,-4.862596,0.694656,0.061069
0.036621,0.032471,1.107422,-4.709924,0.725191,-0.038168
0.041992,0.036621,1.098877,-4.923664,0.625954,-0.229008
0.031738,0.034424,1.103027,-4.801527,0.648855,-0.213740
0.031982,0.027100,1.107422,-5.030534,0.580153,-0.122137
0.036377,0.036621,1.111084,-4.923664,0.603053,-0.015267
0.045654,0.033447,1.099365,-4.938931,0.748092,-0.167939
0.038330,0.030518,1.105469,-4.847328,0.702290,-0.274809
0.037354,0.030273,1.098389,-4.946565,0.618321,-0.114504
0.031738,0.029541,1.102539,-4.992366,0.671756,-0.183206
0.038818,0.034180,1.104004,-4.961832,0.526718,-0.022901
0.040039,0.029785,1.107910,-4.893130,0.717557,-0.022901
0.032227,0.028809,1.099121,-4.870229,0.603053,-0.122137
0.036865,0.033691,1.104492,-4.786260,0.687023,-0.068702
0.036377,0.034668,1.098877,-4.923664,0.740458,-0.198473
0.034668,0.034180,1.102783,-4.877862,0.641221,0.007634
0.041016,0.030273,1.100342,-4.877862,0.671756,-0.122137
0.032471,0.031006,1.098389,-4.832061,0.603053,-0.015267
0.031494,0.028564,1.108398,-4.854962,0.511450,-0.030534
0.041748,0.035889,1.106689,-4.809160,0.480916,0.000000
0.035400,0.030273,1.098389,-4.839694,0.687023,0.198473
0.032471,0.036133,1.110840,-4.923664,0.824427,0.114504
0.034912,0.027100,1.108154,-5.000000,0.496183,0.114504
0.040283,0.034912,1.104736,-4.877862,0.793893,-0.045802
0.034180,0.027100,1.104736,-4.816794,0.679389,0.137405
0.042480,0.031006,1.100342,-4.824428,0.595420,0.045802
0.040771,0.021973,1.099854,-4.916030,0.625954,0.038168
0.041748,0.028076,1.096191,-4.877862,0.595420,0.015267
0.036621,0.035156,1.110840,-4.916030,0.709924,0.106870
0.034668,0.030029,1.102783,-4.931298,0.656489,-0.099237
0.033447,0.026611,1.103760,-4.870229,0.687023,-0.022901
0.032959,0.026855,1.106934,-4.916030,0.603053,0.030534
0.033203,0.031250,1.106689,-4.938931,0.641221,0.076336
0.040771,0.028076,1.103027,-4.923664,0.572519,-0.213740
0.029785,0.030029,1.106445,-4.893130,0.709924,0.007634
0.035889,0.025391,1.106201,-4.969466,0.786260,-0.152672
0.037109,0.031250,1.106689,-4.885496,0.572519,-0.236641
0.035156,0.033691,1.105713,-4.816794,0.541985,-0.091603
0.032227,0.032715,1.103027,-4.870229,0.656489,-0.145038
0.039063,0.033203,1.104004,-4.984733,0.641221,-0.106870
0.041748,0.036621,1.105957,-4.877862,0.725191,0.045802
0.030518,0.033447,1.104980,-4.931298,0.534351,0.015267
0.036621,0.035400,1.099365,-4.954198,0.801527,-0.282443
0.039551,0.032227,1.110840,-4.938931,0.656489,-0.167939
0.037598,0.031250,1.105713,-4.916030,0.717557,-0.068702
0.038086,0.032959,1.106934,-4.885496,0.755725,-0.045802
0.042480,0.037598,1.107666,-4.824428,0.656489,-0.061069
0.038086,0.028320,1.100098,-4.824428,0.763359,-0.122137
0.040527,0.031738,1.105957,-4.809160,0.725191,0.007634
0.032471,0.026855,1.105225,-4.893130,0.725191,-0.045802
0.033936,0.024414,1.099609,-4.793893,0.572519,0.022901
0.038330,0.035400,1.108154,-5.000000,0.419847,0.045802
0.032471,0.035400,1.105469,-4.908397,0.679389,0.015267
0.033691,0.030762,1.096680,-4.938931,0.633588,0.122137
0.031982,0.033447,1.112061,-4.786260,0.625954,0.213740
0.033447,0.028320,1.103271,-4.824428,0.641221,0.007634
0.040039,0.032227,1.098145,-4.870229,0.549618,-0.122137
0.041748,0.028076,1.111084,-4.954198,0.664122,0.053435
0.039795,0.032959,1.113037,-4.885496,0.740458,0.137405
0.035645,0.032471,1.103760,-4.862596,0.687023,0.129771
0.048096,0.037109,1.102295,-4.923664,0.641221,0.091603
0.042725,0.030518,1.109619,-4.961832,0.610687,-0.038168
0.034180,0.033691,1.104248,-4.885496,0.427481,0.007634
0.031250,0.029541,1.102051,-4.946565,0.549618,-0.221374
0.037354,0.033203,1.096680,-4.969466,0.740458,-0.045802
0.037109,0.031494,1.103027,-4.854962,0.595420,-0.198473
0.036865,0.031250,1.106934,-4.916030,0.702290,-0.038168
0.037842,0.028809,1.105713,-4.885496,0.656489,-0.015267
0.043457,0.027344,1.112061,-4.908397,0.770992,0.030534
0.037354,0.025146,1.097900,-5.022901,0.671756,-0.045802
0.037109,0.032471,1.104736,-4.961832,0.496183,-0.129771
0.035400,0.035156,1.112061,-4.908397,0.603053,-0.320611
0.033447,0.029785,1.102783,-4.954198,0.496183,-0.251908
0.038574,0.027588,1.103760,-4.778626,0.702290,-0.160305
0.032959,0.031982,1.101074,-4.839694,0.564885,-0.114504
0.032959,0.029053,1.101807,-4.854962,0.793893,-0.129771
0.036621,0.029785,1.104248,-4.870229,0.488550,-0.061069
0.035889,0.025635,1.107422,-4.824428,0.564885,-0.038168
0.025391,0.031738,1.105469,-4.977099,0.595420,0.000000
0.028564,0.028564,1.109131,-4.954198,0.793893,-0.007634
0.042969,0.033203,1.105957,-4.824428,0.687023,0.000000
0.042969,0.034424,1.102295,-4.633588,0.770992,-0.129771
0.036133,0.032471,1.099609,-4.885496,0.587786,0.053435
0.041260,0.033691,1.106934,-4.832061,0.832061,0.145038
0.034912,0.031250,1.097412,-4.862596,0.595420,0.038168
0.035400,0.034912,1.101074,-4.893130,0.580153,0.145038
0.035156,0.025879,1.102295,-4.900764,0.740458,-0.015267
0.031982,0.033691,1.105225,-4.839694,0.641221,-0.137405
0.028809,0.031006,1.100342,-4.946565,0.648855,0.030534
0.035889,0.033447,1.103027,-4.946565,0.694656,0.061069
0.034180,0.033691,1.101074,-4.809160,0.557252,0.015267
0.034424,0.030029,1.104736,-4.893130,0.603053,0.022901
0.035400,0.030518,1.106201,-4.946565,0.732824,0.091603
0.036377,0.029785,1.103516,-4.992366,0.488550,-0.076336
0.036377,0.032959,1.098145,-4.740458,0.595420,-0.145038
0.041260,0.036133,1.109619,-4.916030,0.587786,0.053435
0.033936,0.029541,1.102051,-4.786260,0.618321,0.007634
0.037109,0.032471,1.106445,-4.748092,0.641221,-0.106870
0.040283,0.031982,1.099365,-4.931298,0.702290,-0.106870
0.041260,0.028809,1.102051,-4.755725,0.679389,-0.244275
0.036621,0.026855,1.099854,-4.839694,0.519084,-0.099237
0.031250,0.032471,1.099609,-4.931298,0.770992,-0.114504
0.030762,0.030273,1.109131,-4.748092,0.450382,-0.122137
0.033691,0.026367,1.103516,-4.893130,0.549618,-0.083969
0.031982,0.030518,1.108154,-5.000000,0.648855,-0.076336
0.043945,0.035400,1.108643,-4.877862,0.709924,0.045802
0.037842,0.030762,1.101807,-5.030534,0.656489,-0.229008
0.037354,0.031494,1.112305,-4.793893,0.595420,-0.167939
0.036865,0.027344,1.096680,-4.709924,0.595420,-0.183206
0.041016,0.028809,1.104736,-4.816794,0.610687,-0.122137
0.032715,0.027344,1.108154,-4.778626,0.625954,-0.167939
0.035645,0.031738,1.104736,-4.916030,0.709924,-0.030534
0.031982,0.022949,1.111328,-4.770992,0.656489,-0.198473
0.041504,0.033691,1.111084,-4.908397,0.656489,0.038168
0.028809,0.035156,1.097900,-4.832061,0.473282,0.007634
0.040527,0.030273,1.106201,-4.923664,0.748092,-0.175573
0.038086,0.032959,1.110840,-4.938931,0.786260,0.122137
0.037354,0.027832,1.099854,-4.931298,0.671756,0.099237
0.041748,0.037109,1.104980,-4.885496,0.702290,0.015267
0.029785,0.035156,1.101563,-4.931298,0.610687,-0.038168
0.042969,0.030029,1.100342,-4.847328,0.618321,-0.030534
0.035645,0.029785,1.106934,-4.870229,0.641221,-0.045802
0.031738,0.029053,1.100342,-4.954198,0.496183,0.045802
0.039063,0.028564,1.099609,-4.870229,0.740458,-0.038168
0.037842,0.030029,1.102051,-4.877862,0.679389,0.007634
0.033447,0.027100,1.100342,-4.824428,0.633588,0.038168
0.031982,0.030762,1.102051,-4.893130,0.702290,-0.091603
0.036621,0.030273,1.107422,-4.816794,0.610687,-0.045802
0.035645,0.025879,1.102295,-4.877862,0.770992,0.030534
0.035645,0.031250,1.104980,-4.816794,0.587786,0.007634
0.028320,0.024658,1.100342,-4.786260,0.641221,-0.152672
0.044434,0.024658,1.109619,-4.816794,0.496183,-0.083969
0.041748,0.034180,1.100098,-4.885496,0.480916,-0.083969
0.035400,0.035156,1.103027,-4.885496,0.641221,0.000000
0.038086,0.026367,1.097168,-4.839694,0.709924,-0.091603
0.034912,0.028076,1.104980,-4.893130,0.534351,-0.068702
0.034424,0.034180,1.095947,-4.854962,0.687023,-0.152672
0.036133,0.035156,1.106689,-4.931298,0.740458,-0.145038
0.032715,0.031738,1.105225,-4.816794,0.572519,-0.038168
0.033447,0.029785,1.103027,-4.870229,0.587786,-0.091603
0.031006,0.031006,1.113037,-4.961832,0.580153,-0.167939
0.039795,0.030273,1.106445,-4.908397,0.549618,-0.152672
0.035889,0.027588,1.103271,-5.015267,0.519084,0.038168
0.028320,0.033203,1.102539,-4.885496,0.511450,0.000000
0.038330,0.029297,1.099609,-4.641222,0.679389,-0.129771
0.036377,0.028076,1.101807,-4.923664,0.633588,-0.022901
0.032471,0.028809,1.105957,-4.908397,0.809160,0.015267
0.035645,0.029297,1.105957,-4.793893,0.473282,-0.061069
0.036377,0.029785,1.106689,-4.816794,0.549618,-0.061069
0.032715,0.027588,1.102539,-4.977099,0.587786,-0.076336
0.043213,0.029053,1.097900,-4.854962,0.511450,0.045802
0.025879,0.029785,1.101563,-4.900764,0.625954,0.045802
0.035645,0.030273,1.101318,-4.961832,0.656489,-0.068702
0.037109,0.029053,1.097412,-4.954198,0.595420,-0.061069
0.039063,0.027588,1.100342,-4.847328,0.625954,-0.145038
0.036377,0.029053,1.102295,-4.832061,0.656489,-0.137405
0.039063,0.025635,1.100342,-5.038168,0.664122,0.038168
0.034912,0.029541,1.105957,-4.954198,0.488550,0.114504
0.036377,0.033691,1.107910,-4.923664,0.847328,0.007634
0.037109,0.028809,1.097168,-4.938931,0.580153,-0.175573
0.039795,0.024902,1.104492,-4.793893,0.580153,-0.045802
0.032227,0.026855,1.100830,-4.885496,0.419847,-0.007634
0.035889,0.024658,1.103760,-4.862596,0.557252,-0.137405
0.041504,0.032959,1.101318,-4.786260,0.458015,-0.122137
0.033447,0.028320,1.094971,-5.000000,0.763359,-0.022901
0.038086,0.033203,1.102051,-4.908397,0.656489,-0.122137
0.039307,0.029297,1.098389,-4.793893,0.595420,-0.083969
0.038574,0.026123,1.110840,-4.839694,0.671756,-0.091603
0.037598,0.025391,1.097412,-5.038168,0.694656,-0.167939
0.042969,0.036621,1.105957,-4.877862,0.671756,-0.114504
0.040283,0.031006,1.108398,-4.992366,0.648855,-0.175573
0.033691,0.033936,1.099121,-4.740458,0.595420,-0.076336
0.033203,0.029297,1.107422,-5.022901,0.671756,-0.038168
0.038330,0.028076,1.102295,-4.923664,0.587786,0.000000
0.042480,0.034180,1.104980,-4.916030,0.656489,0.030534
0.032471,0.027832,1.106689,-4.916030,0.503817,-0.221374
0.031494,0.031738,1.100830,-4.740458,0.610687,-0.236641
0.032959,0.025879,1.105957,-4.793893,0.572519,-0.022901
0.034424,0.034424,1.102539,-4.877862,0.595420,0.083969
0.033936,0.027344,1.100830,-4.893130,0.435115,-0.038168
0.032715,0.038330,1.107422,-5.053435,0.832061,-0.022901
0.037842,0.026123,1.102783,-4.923664,0.625954,0.114504
0.026123,0.033447,1.103027,-4.793893,0.633588,-0.053435
0.041504,0.038086,1.105469,-4.923664,0.534351,0.114504
0.038086,0.029541,1.105469,-4.801527,0.740458,-0.030534
0.040527,0.032471,1.098877,-4.916030,0.503817,-0.015267
0.040527,0.037598,1.103027,-5.030534,0.664122,0.213740
0.034180,0.030518,1.098389,-4.908397,0.847328,0.015267
0.033936,0.027588,1.100342,-4.946565,0.625954,-0.007634
0.033691,0.028809,1.106201,-4.801527,0.725191,-0.038168
0.043701,0.029541,1.103516,-4.931298,0.503817,0.022901
0.036621,0.038330,1.104980,-4.847328,0.503817,0.061069
0.038086,0.030273,1.109131,-5.022901,0.671756,0.000000
0.036133,0.028320,1.107666,-4.900764,0.610687,0.076336
0.039795,0.030518,1.098145,-4.916030,0.633588,-0.190840
0.037842,0.030762,1.099854,-4.946565,0.511450,-0.030534
0.039551,0.029297,1.097656,-4.923664,0.702290,-0.076336
0.037354,0.029297,1.108154,-4.900764,0.664122,-0.267176
0.040283,0.030762,1.109619,-4.923664,0.671756,-0.145038
0.044189,0.027832,1.110596,-4.984733,0.541985,0.053435
0.043213,0.029297,1.114014,-4.923664,0.572519,-0.076336
0.030762,0.026367,1.101563,-4.770992,0.679389,-0.068702
0.024658,0.028564,1.101807,-4.854962,0.610687,-0.061069
0.035645,0.037842,1.102783,-4.854962,0.564885,-0.152672
0.032959,0.041992,1.101563,-5.022901,0.725191,0.083969
0.038574,0.023438,1.105957,-4.877862,0.442748,-0.251908
0.036133,0.029541,1.105225,-4.946565,0.587786,-0.175573
0.032227,0.029541,1.104980,-4.801527,0.641221,-0.061069
0.037842,0.026367,1.104736,-4.969466,0.580153,0.015267
0.030762,0.030762,1.100342,-4.908397,0.671756,-0.137405
0.037842,0.028320,1.101074,-4.877862,0.641221,-0.053435
0.039551,0.034424,1.097900,-4.748092,0.717557,0.015267
0.036133,0.027588,1.108643,-4.801527,0.778626,-0.083969
0.040283,0.030029,1.102051,-4.893130,0.687023,-0.030534
0.044434,0.031006,1.099365,-4.732824,0.480916,0.091603
0.032227,0.029053,1.108154,-5.022901,0.572519,0.000000
0.037598,0.038574,1.101318,-4.770992,0.709924,0.091603
0.033203,0.028320,1.104248,-4.847328,0.633588,0.038168
0.039795,0.023926,1.098877,-4.755725,0.534351,0.015267
0.033691,0.021484,1.098877,-4.717557,0.618321,0.083969
0.031738,0.033447,1.104492,-4.946565,0.732824,-0.053435
0.032715,0.029785,1.106201,-4.923664,0.595420,0.068702
0.040039,0.034424,1.111816,-4.931298,0.610687,0.175573
0.039551,0.027100,1.103027,-4.770992,0.549618,0.045802
0.038086,0.032227,1.096680,-4.824428,0.488550,-0.129771
0.034180,0.031250,1.109863,-4.801527,0.793893,-0.045802
0.033936,0.031738,1.104248,-4.755725,0.610687,-0.030534
0.040039,0.029785,1.103760,-5.076336,0.564885,0.076336
0.036133,0.027588,1.106445,-4.877862,0.732824,-0.114504
0.034912,0.026367,1.100342,-4.908397,0.740458,-0.045802
0.040771,0.033203,1.090088,-4.908397,0.633588,-0.083969
0.039307,0.029053,1.113037,-4.862596,0.625954,0.038168
0.039063,0.030762,1.098145,-5.015267,0.694656,-0.137405
0.024170,0.033691,1.121094,-4.801527,0.908397,-0.145038
0.034180,0.027100,1.105225,-4.725191,0.412214,-0.152672
0.040283,0.027100,1.098145,-4.770992,0.671756,-0.213740
0.030762,0.025391,1.099854,-4.778626,0.511450,0.000000
0.040527,0.024658,1.096436,-4.862596,0.435115,0.015267
0.029053,0.031738,1.105957,-4.847328,0.687023,-0.213740
0.036621,0.028809,1.098389,-4.908397,0.526718,-0.229008
0.040771,0.031006,1.103027,-4.900764,0.625954,-0.106870
0.037842,0.035400,1.106201,-5.038168,0.664122,-0.091603
0.043701,0.029785,1.109619,-4.908397,0.717557,0.007634
0.047607,0.031494,1.111328,-4.832061,0.694656,-0.061069
0.035156,0.032959,1.107910,-4.740458,0.625954,-0.076336
0.030762,0.034424,1.106201,-4.877862,0.564885,-0.106870
0.037598,0.030518,1.100098,-4.931298,0.740458,-0.091603
0.034180,0.030518,1.098633,-4.977099,0.427481,0.045802
0.035156,0.033936,1.095947,-4.809160,0.618321,0.091603
0.037354,0.029053,1.105469,-4.656488,0.519084,0.007634
0.034668,0.031738,1.100830,-4.664122,0.610687,-0.015267
0.033936,0.028809,1.106689,-4.816794,0.732824,-0.137405
0.039551,0.022949,1.108154,-4.908397,0.641221,0.083969
0.044922,0.029541,1.108887,-4.793893,0.526718,0.068702
0.034180,0.031006,1.103027,-4.847328,0.763359,0.030534
0.043213,0.025879,1.101318,-4.977099,0.679389,-0.068702
0.031494,0.024414,1.109131,-4.809160,0.526718,-0.007634
0.039551,0.031494,1.103027,-4.793893,0.557252,-0.122137
0.031250,0.031250,1.104248,-4.877862,0.618321,-0.053435
0.039063,0.032959,1.107910,-4.916030,0.717557,-0.236641
0.039551,0.026855,1.101563,-4.862596,0.725191,0.022901
0.038330,0.027344,1.099365,-4.816794,0.595420,-0.175573
0.037598,0.027588,1.111816,-4.755725,0.648855,-0.206107
0.031738,0.024902,1.104004,-4.839694,0.778626,-0.061069
0.024658,0.024902,1.094482,-4.679389,0.694656,0.030534
0.025391,0.043701,1.105957,-4.656488,0.679389,0.152672
0.030273,0.031982,1.112305,-4.335878,1.038168,4.564886
0.016846,0.008301,1.100830,-4.603054,0.419847,0.519084
0.025391,0.032959,1.111084,-4.824428,0.816794,-0.022901
0.031250,0.029297,1.101074,-4.832061,0.587786,0.091603
0.048584,0.125732,1.095215,-4.358778,0.923664,9.946565
0.005371,0.028320,1.043701,-4.427481,0.801527,15.320611
0.017578,0.024902,1.105469,-4.671756,1.053435,7.717557
0.054932,0.027588,1.111816,-4.603054,0.778626,9.916031
0.001953,0.038330,1.093994,-0.916031,-1.816794,15.030535
0.043701,0.031250,1.031250,4.045802,-3.931298,14.740458
0.006348,0.046143,1.147705,-3.198473,-1.114504,12.519084
-0.003662,0.073486,1.107178,-5.053435,-6.801527,9.343512
0.090332,0.015869,1.053467,-4.557252,-4.183206,12.160305
0.000488,0.002441,1.155029,-4.419847,-8.076336,12.541985
0.191650,0.100586,0.997803,-6.511450,-0.396947,18.312977
-0.028564,0.058105,1.165283,-2.587786,-15.580153,29.900763
0.065918,-0.003662,1.081787,-6.053435,-13.625955,27.534351
-0.140137,0.035889,1.231445,-3.893130,-29.534351,19.961832
0.106689,0.076416,1.115967,-10.190840,-28.236641,12.351145
0.123047,-0.055420,1.106445,-14.412213,-34.366413,2.503817
0.372314,-0.017334,1.117676,-1.839695,-46.923664,-32.778625
0.147217,0.151611,1.015381,-17.977098,-36.725189,-33.496181
0.066895,0.008301,0.966064,-25.465649,-16.916031,-11.595420
0.130615,0.008301,1.154785,-8.297709,-9.351145,-9.938931
-0.100098,0.271973,1.201416,16.603054,-40.305344,4.335878
0.181641,0.192383,0.958252,-14.328244,-30.580153,40.717556
0.154053,-0.020752,1.092529,0.412214,-33.992367,29.870230
0.233154,0.022217,1.172363,-1.465649,-35.015266,27.496183
0.304932,0.048340,1.191162,-2.732824,-55.977100,23.083969
0.407227,-0.044678,1.083252,-8.129771,-67.648857,-9.244275
0.250244,0.041504,1.106201,-12.000000,-87.167938,-28.770992
0.292480,0.126221,0.958984,-18.511450,-87.534348,-16.557251
0.382324,0.034668,1.002441,-8.564885,-97.908394,-6.954198
0.750244,0.159912,0.612549,-14.129771,-93.946564,-3.847328
-0.641113,-0.005859,1.416992,0.854962,-153.076340,1.160305
0.455322,-0.223389,1.598145,-1.793893,-115.954200,1.290076
0.856201,0.043457,0.683350,-20.351145,-107.320610,-5.885496
0.480713,0.014893,0.979004,-23.717558,-129.450380,-11.061069
0.568359,0.056885,0.787354,-24.328245,-125.641220,-16.282442
1.049561,-0.380615,1.474609,-21.167938,-116.625950,-20.190840
0.829346,-0.015137,0.797119,-29.969465,-140.946560,-18.412214
0.724365,-0.046631,0.907471,-30.160305,-154.786250,-14.786260
0.847900,0.035400,0.516602,-35.793892,-155.656490,-14.015267
0.792969,0.018066,0.557129,-44.618320,-141.297710,-17.442749
0.775146,0.045410,0.550049,-46.343510,-108.717560,-19.442749
0.802734,-0.051270,0.627930,-21.106871,-76.305344,-14.832061
0.893799,-0.005859,0.575439,-4.290076,-59.580154,-15.045801
0.831055,0.213135,0.463135,-20.083969,-83.954201,-1.206107
0.993896,0.000488,0.439453,-19.664122,-91.083969,17.793894
0.646484,0.396484,-0.196777,-16.687023,-70.267174,3.984733
0.997314,-0.043945,0.325684,-6.190840,-59.206108,1.809160
0.946045,0.035889,0.311768,-13.038168,-65.274811,1.854962
0.969238,-0.022705,0.274658,-3.564885,-71.503815,2.167939
0.986816,-0.005615,0.242432,-2.763359,-69.274811,1.732824
0.985107,-0.026123,0.220947,-8.496183,-73.213737,0.862595
0.983887,-0.000732,0.194336,-11.702291,-73.633591,0.061069
0.997559,-0.014893,0.148438,2.015267,-68.022903,3.770992
1.054443,-0.035156,0.063232,2.648855,-64.000000,1.480916
0.991455,-0.010742,0.052490,-6.687023,-62.687023,1.251908
1.021240,0.005859,0.026367,-7.526718,-57.641220,1.160305
1.029785,-0.045898,-0.053223,-3.931298,-49.618320,1.129771
1.030762,-0.025635,-0.052002,6.198473,-34.587788,-0.183206
1.003662,-0.034668,-0.069092,3.541985,-25.412214,-0.068702
0.998291,-0.007324,-0.059814,-1.664122,-19.809160,-0.175573
1.012695,-0.033691,-0.001953,0.061069,-14.061069,-0.290076
1.015381,-0.019287,-0.046387,-5.145038,-12.793893,0.290076
1.016846,-0.024170,-0.066895,-5.076336,-6.152672,0.129771
1.008057,-0.017578,-0.051025,-4.770992,-0.709924,-0.091603
1.010986,-0.013916,-0.043213,-5.534351,0.366412,-0.106870
1.014404,-0.017822,-0.036133,-4.763359,3.129771,-0.129771
1.013428,-0.025146,-0.026123,-4.511450,3.473282,-0.244275
1.003906,-0.022705,0.011719,-3.885496,4.450382,-0.022901
1.011963,-0.013428,-0.007813,-4.702290,4.129771,-0.114504
1.009521,-0.017334,-0.018066,-4.870229,2.259542,-0.183206
1.008545,-0.025146,-0.024658,-4.877862,0.167939,-0.091603
1.011475,-0.026123,-0.023926,-5.083970,0.374046,-0.061069
1.011719,-0.017578,-0.026367,-4.931298,1.099237,-0.061069
1.012451,-0.012695,-0.026855,-4.793893,0.885496,0.053435
1.005615,-0.022949,-0.015869,-4.900764,0.335878,0.053435
1.013672,-0.021973,-0.019287,-4.847328,0.458015,0.045802
1.012695,-0.024170,-0.029053,-4.877862,1.022901,0.038168
1.016846,-0.014893,-0.014893,-5.213740,0.847328,-0.061069
1.005859,-0.019043,-0.033447,-4.816794,1.816794,-0.061069
1.028809,-0.034912,-0.065186,-4.496183,0.061069,-0.022901
1.008301,-0.019043,-0.016602,-5.007634,-1.381679,0.129771
1.008545,-0.014160,-0.016357,-5.030534,-0.809160,0.053435
1.015381,-0.021484,-0.012207,-5.213740,-1.923664,-0.022901
1.010986,-0.024902,-0.006348,-4.564886,-3.435115,0.068702
1.004883,-0.018066,-0.035400,-4.625954,-2.931298,0.015267
1.004883,-0.021729,-0.031494,-5.282443,-3.122137,0.045802
1.006836,-0.020264,-0.054443,-5.694656,-3.167939,0.167939
1.015137,-0.031982,-0.045898,-4.725191,-2.564885,0.038168
1.010254,-0.022461,-0.068848,-4.343512,2.374046,0.022901
1.008545,-0.019043,-0.037598,-4.816794,3.183206,-0.122137
1.005371,-0.010742,-0.021973,-4.946565,1.763359,-0.083969
1.015381,-0.029053,-0.050293,-4.465649,2.717557,-0.122137
1.009766,-0.017578,-0.028809,-4.526718,3.007634,-0.167939
1.015137,-0.025391,-0.016602,-4.358778,0.770992,-0.152672
1.014648,-0.011963,-0.028320,-4.870229,-1.488550,-0.122137
1.002197,-0.021973,-0.036133,-4.587786,-0.274809,-0.152672
1.008057,-0.014160,-0.049805,-4.946565,0.175573,-0.061069
1.004883,-0.021729,-0.035156,-4.832061,-0.984733,0.022901
1.012695,-0.021973,-0.032715,-4.763359,-0.564885,-0.114504
1.007813,-0.022461,-0.041504,-4.656488,-0.206107,-0.076336
1.012451,-0.014404,-0.019287,-5.000000,1.763359,-0.083969
1.004639,-0.021484,-0.015137,-4.923664,0.229008,-0.152672
1.009521,-0.017090,-0.035645,-5.358778,-3.389313,0.106870
1.007813,-0.024902,-0.059082,-4.106870,-0.687023,-0.068702
1.002197,-0.024414,-0.033203,-3.534351,2.801527,-0.190840
1.013916,-0.018799,-0.035400,-4.236641,2.328244,-0.145038
1.010010,-0.002930,-0.083496,12.259542,8.312977,-2.465649
0.993896,0.005371,-0.035645,12.351145,5.664122,-2.236641
1.017334,-0.023682,-0.023193,-2.702290,0.458015,-0.297710
1.018066,-0.020264,-0.038086,-4.221374,1.984733,0.076336
1.013916,-0.011719,-0.027832,-4.435114,2.274809,0.000000
1.006836,-0.018311,-0.018555,-5.954198,-0.618321,-0.022901
1.004639,-0.019043,-0.031738,-5.007634,-0.801527,-0.091603
1.006836,-0.021484,-0.015625,-4.389313,-0.503817,0.099237
1.008057,-0.015869,-0.029785,-4.702290,-0.106870,-0.045802
1.000488,-0.014893,-0.029541,-5.229008,-0.885496,0.061069
1.009766,-0.022217,-0.029297,-5.320611,-1.488550,-0.091603
1.008545,-0.025879,-0.038818,-5.290076,-1.206107,0.000000
1.015625,-0.020508,-0.044678,-4.511450,0.641221,0.068702
1.007813,-0.019287,-0.029541,-4.557252,1.717557,-0.076336
1.004150,-0.019287,-0.031982,-5.251908,1.595420,-0.106870
1.003662,-0.025635,-0.034424,-5.572519,1.633588,-0.015267
1.011230,-0.021484,-0.045654,-3.717557,4.893130,-0.167939
1.016357,-0.012451,-0.018311,-4.748092,5.641222,-0.190840
1.011963,-0.017334,-0.012207,-4.931298,5.603054,-0.312977
1.004395,-0.023438,-0.003906,-5.366412,3.648855,-0.106870
1.002686,-0.007813,0.006348,-4.847328,2.473282,-0.068702
1.014404,-0.020508,-0.006348,-3.694656,1.786260,-0.236641
1.008057,-0.016113,-0.021729,-4.496183,1.946565,-0.221374
1.014893,-0.018799,-0.008789,-5.045802,1.496183,-0.190840
1.015137,-0.020752,-0.019287,-5.664122,0.755725,-0.099237
1.010254,-0.021240,-0.016357,-5.259542,0.832061,-0.015267
1.019043,-0.018311,-0.022217,-4.564886,1.511450,-0.236641
1.015381,-0.021240,-0.015869,-4.305344,2.015267,-0.175573
1.003418,-0.017822,-0.013428,-5.183206,1.923664,0.015267
1.007324,-0.024170,-0.009277,-5.213740,1.633588,-0.167939
1.002441,-0.018066,-0.005127,-4.770992,1.969466,-0.167939
1.008057,-0.017822,-0.019775,-4.534351,2.549618,-0.160305
1.011963,-0.013672,-0.015137,-5.160306,2.648855,-0.137405
1.015381,-0.017578,-0.011719,-5.145038,3.229008,0.053435
1.012939,-0.019531,-0.003418,-4.908397,2.893130,-0.053435
1.010498,-0.020752,-0.012939,-4.038168,3.038168,-0.076336
1.004639,-0.015625,-0.000732,-4.534351,2.702290,-0.045802
1.005859,-0.013916,-0.009766,-5.198473,2.931298,0.000000
1.008789,-0.015381,-0.002197,-5.541985,2.305344,0.038168
1.016602,-0.020996,0.005615,-4.877862,2.564885,0.122137
1.015381,-0.022705,-0.005859,-4.824428,2.748092,0.099237
1.013672,-0.021240,-0.005859,-4.633588,3.480916,-0.083969
1.010254,-0.018555,0.003662,-5.045802,3.068702,-0.061069
1.019775,-0.016357,0.000977,-4.748092,2.053435,0.053435
1.012939,-0.017090,0.008789,-4.801527,1.320611,0.053435
1.013184,-0.021729,0.005615,-4.916030,1.335878,-0.022901
1.005615,-0.014648,0.002197,-4.870229,0.633588,0.045802
1.014893,-0.016602,-0.011719,-4.908397,-0.068702,0.007634
1.007568,-0.026123,0.001709,-5.412214,0.335878,-0.068702
1.016357,-0.017334,-0.001465,-4.908397,0.374046,-0.015267
1.015381,-0.019043,-0.006836,-4.458015,1.038168,0.000000
1.008545,-0.025879,-0.006592,-4.519084,1.656489,-0.122137
1.011719,-0.024414,-0.006348,-4.969466,1.854962,-0.076336
1.012207,-0.018799,-0.005615,-4.992366,1.465649,-0.030534
1.013428,-0.021973,-0.007324,-5.122138,1.404580,0.000000
1.004883,-0.018066,-0.000244,-4.297710,1.358779,-0.137405
1.017334,-0.016357,0.003662,-4.702290,0.603053,-0.175573
1.010010,-0.016357,-0.005859,-5.175572,0.496183,-0.198473
1.015625,-0.021484,0.001709,-5.068702,0.587786,-0.045802
1.010498,-0.020264,0.003906,-4.877862,0.557252,-0.190840
1.009033,-0.021729,0.000488,-4.656488,0.038168,-0.076336
1.016602,-0.021240,-0.004150,-4.687023,0.297710,-0.152672
1.018311,-0.018555,-0.001465,-4.633588,0.435115,-0.122137
1.005615,-0.012695,0.002441,-4.877862,-0.229008,0.022901
1.002441,-0.018555,0.000977,-5.076336,-0.877863,0.053435
1.010010,-0.019775,0.000000,-4.358778,-0.282443,0.000000
1.015381,-0.019531,-0.012939,-4.816794,-0.114504,-0.045802
1.014648,-0.015137,-0.012207,-5.061069,0.496183,-0.053435
1.004395,-0.016846,-0.000977,-4.854962,0.770992,-0.145038
1.010010,-0.016357,-0.003418,-4.847328,0.473282,-0.015267
1.019531,-0.016602,-0.008057,-5.038168,1.061069,-0.015267
1.011230,-0.018555,-0.003906,-5.068702,0.549618,-0.076336
1.013428,-0.019531,0.002441,-4.740458,0.305344,-0.236641
1.011963,-0.019775,-0.002686,-4.839694,0.587786,0.015267
1.007324,-0.020752,0.004150,-5.160306,0.664122,0.091603
1.011963,-0.018799,0.003418,-4.671756,0.389313,0.022901
1.019531,-0.019287,-0.002686,-4.824428,0.122137,-0.061069
1.013672,-0.019043,-0.005859,-4.847328,0.122137,0.137405
1.015381,-0.019043,-0.003174,-4.610687,0.770992,0.015267
1.014893,-0.016602,0.001221,-5.145038,0.748092,0.030534
1.006836,-0.025391,0.002197,-4.984733,0.244275,-0.015267
1.013672,-0.019775,-0.002686,-4.641222,-0.091603,-0.068702
1.006836,-0.013672,-0.009766,-4.977099,0.236641,-0.145038
1.013428,-0.017578,-0.005859,-5.091603,0.312977,-0.061069
1.007324,-0.016113,0.004883,-4.740458,0.809160,-0.038168
1.016846,-0.019043,-0.001709,-5.083970,0.534351,-0.152672
1.010742,-0.020752,-0.002197,-5.183206,-0.061069,-0.175573
1.016357,-0.017090,-0.009766,-4.778626,0.145038,-0.183206
1.015625,-0.021973,0.000244,-4.763359,1.038168,-0.160305
1.010010,-0.014160,0.003418,-4.977099,0.877863,-0.129771
1.012695,-0.018311,0.005615,-5.000000,-0.351145,-0.022901
1.008545,-0.016602,-0.002197,-4.633588,-0.526718,-0.038168
1.008545,-0.019531,-0.002197,-4.847328,-0.183206,-0.091603
1.010986,-0.012695,-0.007080,-4.671756,-0.122137,0.022901
1.008545,-0.015381,-0.013184,-4.687023,0.305344,-0.038168
1.013916,-0.017578,-0.009521,-4.984733,0.908397,-0.213740
1.018066,-0.018066,-0.001465,-4.854962,1.229008,0.015267
1.013672,-0.020752,0.003662,-4.480916,1.458015,-0.145038
1.005859,-0.006836,0.008545,-3.984733,1.557252,0.114504
1.008057,-0.019775,0.005615,-3.870229,2.091603,-0.145038
1.006592,-0.014893,0.006592,-4.343512,1.908397,0.068702
1.010986,0.009277,-0.013672,-6.221374,0.580153,0.038168
1.012939,-0.013184,0.001709,-4.885496,0.793893,-0.068702
1.015625,-0.017578,-0.000488,-4.618320,0.862595,-0.007634
1.015381,-0.014648,-0.001953,-4.671756,1.251908,0.015267
1.007324,-0.017334,-0.000488,-4.824428,0.885496,0.030534
1.010742,-0.015625,-0.000732,-5.175572,0.213740,0.076336
1.012207,-0.022461,-0.000977,-4.977099,0.083969,-0.015267
1.013916,-0.016602,-0.005371,-4.496183,0.938931,0.045802
1.014648,-0.015381,-0.005615,-4.419847,1.206107,-0.022901
1.010986,-0.014404,-0.003418,-4.961832,0.847328,-0.114504
1.010986,-0.014160,0.004639,-5.129771,0.916031,0.007634
1.014160,-0.015869,0.002441,-5.183206,0.473282,-0.007634
1.014893,-0.016602,0.001709,-4.679389,0.366412,-0.106870
1.010254,-0.025879,-0.004639,-4.580153,0.824427,-0.038168
0.964355,0.026367,-0.004150,-4.419847,2.007634,0.152672
1.006836,-0.011719,-0.017822,-5.099236,1.145038,-0.038168
1.004883,-0.023438,0.008301,-4.839694,-0.183206,-0.183206
1.008301,-0.019043,-0.000244,-4.763359,0.167939,-0.053435
1.020752,-0.021240,-0.004639,-4.549618,0.320611,-0.129771
1.008789,-0.020020,-0.002441,-4.603054,0.526718,-0.190840
1.016357,-0.018555,0.005615,-5.015267,0.526718,-0.091603
1.015869,-0.012695,0.006836,-4.893130,0.160305,-0.099237
1.011475,-0.015137,-0.003418,-4.717557,0.297710,-0.022901
1.012695,-0.022949,0.000244,-4.900764,0.618321,-0.122137
1.009033,-0.015381,-0.005859,-4.854962,0.824427,-0.175573
1.009277,-0.010010,0.021240,-5.404580,-0.328244,-0.053435
1.009766,-0.017334,0.005615,-4.511450,0.839695,-0.106870
1.014648,-0.013672,-0.004395,-4.687023,1.175573,-0.053435
1.007813,-0.018555,-0.001465,-4.793893,0.656489,-0.114504
1.010010,-0.017090,-0.002686,-4.938931,0.648855,-0.053435
1.007324,-0.020752,0.000244,-5.007634,0.732824,-0.083969
1.017090,-0.017822,0.007813,-4.847328,0.458015,0.030534
1.009277,-0.017090,0.002930,-4.709924,0.595420,0.106870
1.016113,-0.016113,-0.004883,-4.702290,0.534351,0.000000
1.015625,-0.024902,-0.004639,-4.770992,0.641221,0.000000
1.010010,-0.021729,-0.008545,-4.984733,0.473282,-0.122137
1.014160,-0.014893,-0.004395,-4.877862,0.656489,-0.061069
1.004883,-0.015869,-0.005371,-4.541985,0.961832,-0.099237
1.009521,-0.015381,0.008057,-4.778626,1.297710,-0.061069
1.004639,-0.014893,0.007324,-5.076336,1.160305,0.099237
1.003906,-0.014404,0.007813,-4.847328,0.648855,-0.137405
1.015625,-0.017334,0.000000,-4.900764,0.213740,0.106870
1.007813,-0.018066,-0.005127,-4.908397,0.381679,0.083969
1.018066,-0.012695,-0.003174,-4.824428,0.358779,-0.053435
1.010254,-0.013428,-0.006348,-5.129771,0.427481,-0.053435
1.011230,-0.017090,0.004150,-4.496183,0.916031,0.007634
1.016357,-0.013428,0.000488,-4.908397,0.832061,-0.038168
1.019043,-0.011963,0.003906,-4.900764,0.450382,0.015267
1.008301,-0.024170,-0.002441,-4.938931,0.480916,-0.068702
1.016846,-0.016113,0.000000,-4.916030,0.213740,-0.007634
1.009766,-0.022949,-0.010254,-4.931298,0.374046,-0.152672
1.007813,-0.014160,0.000244,-4.732824,1.000000,0.007634
1.023438,-0.018311,-0.008789,-4.961832,0.969466,-0.122137
1.011475,-0.019287,-0.005615,-5.183206,0.809160,-0.152672
1.022705,-0.017822,0.001465,-4.488550,0.786260,-0.160305
1.011963,-0.015137,-0.001953,-4.961832,1.061069,-0.068702
1.015381,-0.019287,0.002930,-4.778626,0.625954,-0.290076
1.003174,-0.016846,0.000244,-4.748092,1.007634,-0.221374
1.012451,-0.016357,0.004395,-4.877862,0.763359,-0.099237
1.018066,-0.015381,0.003906,-5.190840,0.603053,-0.038168
1.013184,-0.014160,-0.000488,-4.839694,0.511450,-0.106870
1.020996,-0.016113,0.000732,-4.969466,0.404580,0.007634
1.010010,-0.014648,-0.002441,-4.793893,0.419847,0.068702
1.015137,-0.021973,-0.002197,-4.679389,0.351145,-0.015267
1.022217,-0.016113,-0.003174,-5.022901,0.587786,-0.007634
1.011230,-0.021484,0.000977,-4.793893,0.572519,-0.030534
1.009033,-0.017090,-0.006348,-4.916030,0.740458,-0.122137
1.005371,-0.018799,0.004639,-4.862596,0.717557,-0.091603
1.011475,-0.013916,-0.002197,-4.778626,0.946565,-0.015267
1.005859,-0.013916,-0.006836,-4.824428,0.824427,-0.068702
1.020996,-0.015625,0.000244,-4.709924,0.641221,0.099237
1.010742,-0.021973,0.001465,-4.755725,0.557252,0.099237
1.017578,-0.019287,0.010010,-4.961832,1.045802,-0.076336
1.007324,-0.021973,0.006592,-4.694656,0.625954,-0.083969
1.008545,-0.020508,0.006348,-4.793893,0.740458,-0.007634
1.014893,-0.016357,-0.000488,-4.854962,0.564885,0.030534
1.010254,-0.024902,0.000244,-4.870229,0.793893,0.114504
1.010498,-0.019287,0.006104,-4.916030,0.671756,-0.007634
1.005127,-0.015869,0.000732,-4.854962,0.122137,-0.061069
1.013672,-0.016357,-0.005127,-4.870229,0.541985,-0.068702
1.014893,-0.013428,-0.008789,-4.839694,0.603053,0.022901
1.011719,-0.016602,-0.002197,-5.068702,0.572519,-0.259542
1.012207,-0.024902,0.001953,-4.732824,0.519084,0.038168
1.012451,-0.015137,-0.007568,-4.862596,0.564885,-0.061069
1.013184,-0.016113,0.005859,-5.053435,0.763359,-0.099237
1.014404,-0.019287,-0.006836,-4.801527,1.068702,-0.045802
1.015381,-0.016113,0.005371,-4.694656,0.977099,-0.160305
1.010010,-0.017334,0.004395,-4.854962,0.946565,-0.061069
1.015625,-0.016602,0.001953,-4.763359,0.625954,-0.106870
1.017090,-0.020752,0.013916,-5.015267,0.412214,0.152672
1.014160,-0.021973,0.000977,-5.282443,0.351145,-0.175573
1.009766,-0.019531,0.000488,-4.877862,0.625954,-0.068702
1.005859,-0.017090,-0.005615,-4.786260,0.793893,-0.015267
1.004150,-0.017090,0.003906,-4.893130,0.465649,0.061069
1.015869,-0.014160,-0.005371,-4.931298,0.633588,-0.106870
1.015137,-0.005371,0.003662,-4.885496,0.709924,-0.160305
1.012207,-0.015137,0.008545,-4.824428,0.732824,0.000000
1.008789,-0.019043,0.005859,-4.847328,0.625954,-0.053435
1.011475,-0.019043,0.001221,-4.656488,0.656489,-0.083969
1.016357,-0.011963,-0.003174,-4.664122,0.664122,0.022901
1.012207,-0.021973,0.001221,-4.587786,0.923664,-0.015267
1.013184,-0.019287,0.003906,-4.763359,0.450382,0.022901
1.015625,-0.015137,0.005127,-4.809160,0.137405,0.038168
1.011719,-0.016846,-0.001709,-4.793893,0.312977,0.038168
1.015625,-0.010742,-0.001709,-4.893130,0.526718,0.061069
1.014160,-0.021973,0.005615,-4.877862,0.656489,0.091603
1.012939,-0.022949,-0.000732,-4.755725,0.458015,0.053435
1.008301,-0.022705,-0.003174,-5.000000,0.519084,0.068702
1.006592,-0.018799,-0.003662,-4.793893,0.610687,-0.015267
1.016357,-0.015381,0.000732,-4.786260,0.511450,0.083969
1.017334,-0.015381,-0.001953,-5.083970,0.473282,-0.015267
1.018555,-0.018311,0.006836,-5.175572,0.335878,-0.053435
1.013184,-0.017334,0.002930,-4.732824,0.038168,-0.083969
1.019043,-0.016846,-0.004150,-5.038168,0.595420,0.007634
1.017334,-0.016602,-0.002197,-4.938931,0.412214,-0.022901
1.014893,-0.020020,-0.007813,-4.587786,0.404580,0.076336
1.008301,-0.025879,-0.002686,-4.992366,0.328244,-0.114504
1.020752,-0.015625,-0.003906,-5.083970,0.877863,-0.167939
1.020264,-0.017334,0.000000,-4.893130,0.992366,-0.022901
1.014404,-0.019043,-0.004883,-4.702290,1.091603,-0.106870
1.010498,-0.020020,0.010010,-4.786260,0.770992,-0.061069
1.018066,-0.017578,0.004883,-5.022901,0.343511,-0.259542
1.012695,-0.020020,-0.002686,-4.702290,0.312977,-0.106870
1.004639,-0.015869,-0.001221,-4.809160,0.381679,-0.236641
1.008545,-0.028809,0.001221,-5.389313,0.412214,-0.122137
1.008301,-0.020508,0.003174,-5.335878,0.427481,-0.175573
1.017578,-0.014893,-0.006104,-4.969466,-0.129771,-0.099237
1.014893,-0.017090,-0.001465,-4.687023,0.244275,-0.167939
1.015869,-0.012939,-0.001953,-4.832061,0.503817,-0.068702
1.013428,-0.020752,-0.007080,-4.931298,0.595420,-0.038168
1.013672,-0.015381,-0.013672,-4.854962,0.694656,-0.190840
1.009766,-0.022705,0.001465,-4.748092,0.870229,-0.145038
1.008057,-0.021484,-0.006592,-4.862596,0.541985,0.030534
1.006836,-0.020264,-0.006104,-4.908397,0.572519,-0.030534
1.015381,-0.020996,0.009766,-4.900764,0.587786,-0.083969
1.011963,-0.017822,-0.008057,-4.541985,0.725191,0.099237
1.018555,-0.010254,-0.001221,-4.526718,0.793893,0.083969
1.008545,-0.019043,0.000977,-4.977099,0.801527,-0.030534
1.008545,-0.014648,0.000732,-4.923664,0.374046,-0.106870
1.015137,-0.018066,-0.006104,-4.816794,0.366412,0.099237
1.018799,-0.019531,0.000732,-4.893130,0.679389,0.114504
1.011230,-0.024902,-0.002441,-5.068702,1.083969,0.007634
1.010986,-0.020996,0.007568,-4.839694,1.221374,-0.152672
1.017334,-0.012695,-0.002930,-4.595420,0.938931,-0.167939
1.009277,-0.023193,0.006104,-4.908397,0.541985,-0.145038
1.011230,-0.022461,-0.005371,-4.908397,1.030534,0.038168
1.010742,-0.023682,0.002197,-4.893130,0.900763,0.000000
1.000977,-0.020752,0.005859,-4.664122,0.648855,-0.022901
1.013184,-0.018311,-0.000977,-4.564886,0.389313,0.038168
1.011963,-0.018555,-0.001221,-4.877862,0.893130,0.038168
1.017334,-0.013672,0.002686,-4.847328,0.702290,-0.099237
1.010498,-0.014893,-0.000732,-4.702290,0.847328,-0.129771
1.009521,-0.008789,0.002441,-4.839694,1.167939,-0.282443
1.016113,-0.017578,0.005127,-4.633588,1.152672,-0.099237
1.011230,-0.020752,0.006592,-4.610687,0.648855,-0.045802
1.007080,-0.017822,-0.002441,-4.984733,0.526718,-0.152672
1.024414,-0.013184,-0.000488,-5.267176,0.786260,-0.106870
1.014160,-0.018799,0.009766,-4.603054,1.015267,-0.229008
1.013184,-0.016113,-0.002930,-4.816794,0.862595,-0.099237
1.016357,-0.020752,0.008789,-5.167939,0.587786,-0.129771
1.016846,-0.015869,0.003662,-4.923664,0.305344,0.007634
1.019043,-0.018311,-0.005371,-4.656488,0.801527,-0.091603
1.018311,-0.015137,-0.007080,-4.732824,0.824427,0.122137
1.009521,-0.021729,0.000244,-5.175572,0.587786,-0.091603
1.012695,-0.023193,0.000488,-4.770992,0.557252,-0.030534
1.013672,-0.020264,0.006592,-4.946565,0.625954,-0.045802
1.006348,-0.019531,0.000732,-4.854962,0.564885,0.000000
1.013184,-0.015381,-0.011719,-4.923664,0.702290,-0.183206
1.016846,-0.020264,-0.013184,-4.633588,0.656489,0.045802
1.007813,-0.016602,-0.000732,-4.854962,0.763359,-0.106870
1.008789,-0.018311,0.001465,-5.091603,0.694656,-0.015267
1.010742,-0.016846,0.004883,-4.778626,0.687023,-0.007634
1.013184,-0.017334,-0.000977,-4.969466,0.343511,-0.022901
1.004639,-0.020020,-0.004395,-4.648855,0.641221,-0.091603
1.013672,-0.018799,-0.001953,-4.740458,0.893130,-0.061069
1.014893,-0.064453,-0.000977,-4.740458,1.351145,-0.152672
1.023193,-0.007324,0.000488,-5.076336,-0.076336,0.198473
1.013672,-0.023438,-0.000244,-4.473282,0.175573,0.145038
1.014404,-0.019531,-0.000732,-4.977099,0.748092,-0.206107
1.007813,-0.018066,-0.000732,-4.992366,0.442748,0.053435
1.003906,-0.013184,-0.000977,-4.427481,0.488550,0.083969
1.016602,-0.018311,-0.002686,-4.938931,0.389313,-0.061069
1.007080,-0.024170,-0.007324,-5.076336,0.908397,-0.015267
1.011230,-0.016602,0.000244,-4.572519,1.854962,-0.145038
1.009766,-0.014160,-0.000244,-4.839694,1.511450,0.007634
1.015869,-0.024170,0.007568,-4.862596,0.847328,-0.053435
1.018066,-0.016602,0.011963,-4.656488,0.229008,-0.061069
1.010986,-0.023438,-0.006348,-4.839694,0.259542,-0.167939
1.007568,-0.019287,-0.000732,-5.000000,-0.007634,-0.114504
1.012695,-0.023438,0.000732,-4.938931,0.427481,-0.007634
1.018311,-0.024902,0.001709,-4.824428,0.839695,-0.137405
1.016357,-0.019287,-0.004150,-4.923664,0.656489,-0.106870
1.008545,-0.011475,0.010254,-4.694656,0.290076,-0.022901
1.009033,-0.014893,-0.000244,-4.854962,0.480916,-0.076336
1.009766,-0.021484,-0.005127,-4.961832,0.725191,-0.183206
1.008545,-0.023682,-0.005371,-5.053435,0.824427,-0.229008
1.017090,-0.020996,0.001465,-4.793893,0.671756,-0.091603
1.015625,-0.014160,0.000244,-4.610687,0.709924,-0.076336
1.013672,-0.023193,0.004639,-4.778626,0.832061,-0.160305
1.006592,-0.013184,0.005127,-4.732824,0.679389,-0.091603
1.017334,-0.021729,0.003418,-4.961832,0.587786,-0.099237
1.016113,-0.024170,0.008789,-4.954198,0.770992,-0.038168
1.013672,-0.016602,0.000244,-4.923664,0.648855,-0.167939
1.019287,-0.016357,-0.005615,-4.862596,0.549618,0.053435
1.021484,-0.013916,0.001953,-4.793893,0.931298,0.022901
1.009521,-0.013916,-0.005371,-4.786260,1.022901,-0.015267
1.015625,-0.019287,0.000977,-4.732824,0.885496,0.122137
1.008057,-0.015625,0.008057,-4.908397,0.564885,0.076336
1.013672,-0.023682,-0.005859,-4.961832,0.496183,-0.038168
1.012695,-0.026367,-0.000732,-4.931298,0.938931,0.137405
1.019043,-0.015869,-0.000977,-4.557252,1.709924,0.015267
1.011475,-0.020508,-0.007324,-4.778626,3.267176,0.038168
1.024902,-0.016113,-0.032715,-5.236641,7.519084,-0.053435
1.023193,-0.014893,-0.056152,-6.068702,15.389313,-0.267176
1.029053,-0.025391,-0.053223,-5.389313,26.480917,-0.351145
1.024902,-0.009033,-0.028076,-3.694656,34.885498,-0.587786
1.014160,-0.018311,-0.035156,-0.152672,46.862595,-1.198473
0.995850,-0.033447,-0.044922,-5.167939,60.381680,-1.587786
1.022217,-0.014648,-0.025879,-4.000000,78.526718,-1.770992
0.983887,-0.010254,0.067627,-15.000000,94.694656,-2.786260
0.944092,-0.063232,0.043213,-20.366413,104.946560,-4.488550
0.993896,-0.047852,0.140137,-13.450381,115.496190,-4.473282
0.932373,-0.143066,0.228027,5.809160,164.801530,-4.480916
0.557617,-0.006348,0.159668,16.305344,232.618320,1.145038
1.142334,-0.000488,0.325928,39.862595,250.129780,10.694656
0.714844,0.262939,0.669678,-31.786259,138.129780,-20.832062
0.876465,0.035645,0.538574,-5.839694,139.328250,-5.969466
0.713623,-0.013672,0.671143,-0.534351,135.030530,-9.312977
0.750000,-0.043457,0.657471,-4.274809,139.312970,3.946565
0.613525,0.048828,0.842285,-4.389313,145.473280,-4.534351
0.630615,-0.014404,0.886719,-6.511450,151.297710,-10.129771
0.584717,0.050781,0.804443,-5.427481,153.847340,-7.442748
0.526367,-0.044922,0.972656,4.473282,147.564880,2.312977
0.426514,-0.033203,1.052246,-0.137405,133.068700,-0.732824
0.416504,-0.020996,1.066895,-3.015267,116.129770,-3.534351
0.379395,0.035645,1.043701,-4.816794,105.778630,-6.015267
0.233887,0.058838,1.036133,-3.503817,103.931300,-3.503817
0.204590,-0.022461,1.141113,1.725191,108.900760,2.549618
0.340088,0.009766,1.128662,0.305344,108.557250,1.938931
0.346436,0.093262,1.143311,-1.916031,95.755722,1.190840
0.162109,-0.026367,1.264160,0.725191,79.152672,1.603053
0.037842,-0.002930,1.205322,42.938931,53.480915,6.358778
0.263428,0.114990,1.072510,40.358780,47.671757,-1.717557
0.075928,0.087158,0.969238,38.335876,51.167938,1.167939
-0.038330,0.200928,0.730469,-78.625954,13.114504,9.534351
0.284668,-0.214355,1.507324,-63.389313,19.045801,-0.717557
0.187012,0.030273,1.347900,-7.236641,12.366412,4.358778
0.017578,0.029541,1.100586,-0.946565,1.992366,-1.122137
0.120850,-0.041260,1.129395,-4.503817,5.229008,-3.442748
0.077393,0.032471,1.014404,-6.832061,4.847328,-2.389313
0.112305,0.035889,1.057617,-10.549619,11.679389,-0.053435
0.084473,0.058594,0.946777,-11.969465,13.984733,1.389313
0.068848,0.038818,1.004883,-21.572519,22.938931,0.091603
-0.007080,0.020264,1.105225,-29.648855,25.893129,1.473282
0.037109,0.084961,0.771973,2.068702,1.633588,2.274809
0.032959,0.002686,1.113037,2.244275,-0.908397,1.488550
0.020264,0.008057,1.098389,0.389313,0.488550,-0.366412
0.033936,0.005615,1.101807,-2.335878,0.725191,-0.251908
0.038330,0.028809,1.113037,-2.595420,0.251908,0.786260
0.056885,-0.007813,1.095947,1.465649,0.770992,1.152672
0.032959,0.000488,1.103516,6.687023,-0.145038,0.068702
0.038330,0.019287,1.120361,8.656488,0.458015,-0.595420
-0.013184,0.058350,1.140137,-0.435115,1.320611,-0.541985
0.036377,-0.002930,1.081543,7.221374,8.244275,-0.671756
0.063477,-0.001953,1.123047,-4.328244,0.587786,-0.183206
0.034912,0.034912,1.100098,-4.778626,0.473282,0.022901
0.034180,0.026367,1.104492,-4.969466,0.793893,-0.129771
0.046143,0.020264,1.104004,-4.320611,0.877863,-0.061069
0.052734,0.027588,1.095947,-4.671756,0.854962,-0.106870
-0.026123,0.065674,1.082275,-6.351145,0.854962,0.114504
0.013672,0.030762,1.111328,-4.938931,0.618321,0.061069
0.040527,0.029541,1.100586,-4.770992,0.709924,0.022901
0.042480,0.033203,1.103271,-4.839694,0.717557,-0.015267
0.033203,0.030762,1.109863,-4.893130,0.557252,0.160305
0.027588,0.029053,1.103760,-4.839694,0.648855,-0.030534
0.042969,0.028320,1.101563,-4.885496,0.916031,0.045802
0.032959,0.033203,1.098877,-5.068702,0.427481,-0.091603
0.044678,0.030029,1.100098,-4.786260,0.603053,0.083969
0.046387,0.031738,1.100830,-4.801527,0.587786,-0.022901
0.042969,0.035645,1.096436,-4.755725,0.610687,-0.083969
0.031006,0.023926,1.097168,-4.854962,0.641221,-0.007634
0.043457,0.026123,1.102783,-4.656488,0.564885,0.045802
0.041748,0.025391,1.100342,-4.946565,0.648855,0.030534
0.030273,0.027832,1.103516,-4.946565,0.603053,-0.259542
0.041992,0.025635,1.100098,-4.870229,0.648855,-0.099237
0.039551,0.025391,1.103760,-4.694656,0.610687,0.030534
0.036133,0.027100,1.102783,-5.045802,0.564885,0.030534
0.046387,0.025635,1.101807,-4.885496,0.503817,-0.061069
0.048584,0.034668,1.105957,-4.740458,0.656489,-0.083969
0.046875,0.037354,1.105957,-4.916030,0.656489,-0.129771
0.035400,0.025391,1.101074,-4.870229,0.519084,-0.129771
0.038574,0.024170,1.103760,-4.687023,0.427481,-0.083969
0.045654,0.029785,1.111328,-4.839694,0.763359,-0.076336
0.032227,0.023926,1.102051,-4.839694,0.664122,-0.083969
0.041748,0.030762,1.101074,-4.885496,0.610687,-0.053435
0.041992,0.028320,1.095947,-4.969466,0.549618,0.022901
0.043945,0.029785,1.101074,-4.862596,0.618321,-0.114504
0.039551,0.032471,1.110352,-5.030534,0.595420,-0.099237
0.041992,0.023438,1.100098,-4.832061,0.664122,-0.038168
0.037598,0.034180,1.099365,-4.748092,0.595420,-0.076336
0.041992,0.026855,1.104492,-4.992366,0.740458,0.068702
0.045654,0.028809,1.108398,-4.839694,0.625954,0.015267
0.033691,0.023682,1.099854,-4.854962,0.541985,-0.076336
0.042725,0.032227,1.097168,-4.801527,0.580153,0.053435
0.044434,0.029785,1.107422,-4.816794,0.557252,0.045802
0.041504,0.031250,1.102295,-4.908397,0.770992,0.167939
0.042969,0.027344,1.103760,-4.801527,0.717557,0.030534
0.039795,0.025146,1.099365,-4.954198,0.519084,-0.129771
0.035156,0.030518,1.103271,-4.877862,0.854962,0.000000
0.043213,0.024902,1.103516,-4.832061,0.442748,-0.007634
0.042480,0.029541,1.101563,-4.877862,0.541985,0.068702
0.035400,0.032715,1.105225,-4.923664,0.480916,0.045802
0.041260,0.026123,1.105957,-4.824428,0.572519,-0.061069
0.045166,0.030029,1.102051,-4.946565,0.557252,-0.068702
0.042725,0.026367,1.102295,-4.763359,0.603053,0.053435
0.037109,0.028809,1.099609,-4.916030,0.595420,-0.183206
0.044189,0.034424,1.098145,-5.000000,0.717557,-0.061069
0.040527,0.030518,1.094482,-4.839694,0.503817,0.038168
0.046387,0.037598,1.096436,-4.885496,0.603053,-0.114504
0.040771,0.025146,1.101807,-4.809160,0.618321,-0.068702
0.041992,0.031738,1.099854,-4.816794,0.725191,-0.015267
0.034424,0.030273,1.104736,-4.793893,0.557252,-0.145038
0.038818,0.031006,1.096680,-4.847328,0.526718,-0.106870
0.045898,0.034668,1.100586,-4.839694,0.687023,-0.160305
0.040039,0.027100,1.109131,-4.961832,0.633588,-0.152672
0.040039,0.028809,1.095459,-4.877862,0.648855,-0.183206
0.035889,0.024170,1.108154,-4.862596,0.664122,-0.022901
0.046387,0.030029,1.095947,-4.870229,0.763359,-0.175573
0.035645,0.024414,1.105225,-4.854962,0.534351,-0.022901
0.041016,0.027832,1.100830,-4.870229,0.557252,-0.091603
0.045898,0.029541,1.101074,-4.893130,0.580153,-0.045802
0.048096,0.031250,1.104248,-4.877862,0.633588,0.061069
0.042725,0.026367,1.106445,-4.877862,0.679389,-0.068702
0.047852,0.029541,1.104492,-4.717557,0.641221,0.076336
0.049805,0.027588,1.105713,-5.022901,0.610687,-0.061069
0.040527,0.030518,1.097656,-4.877862,0.488550,0.099237
0.031250,0.026367,1.104248,-4.839694,0.564885,-0.076336
0.038574,0.027100,1.105469,-4.740458,0.526718,0.045802
0.031738,0.028809,1.109131,-4.946565,0.610687,0.190840
0.043213,0.033691,1.099854,-4.946565,0.648855,-0.015267
0.045654,0.025879,1.099365,-4.862596,0.671756,-0.007634
0.044922,0.031250,1.101563,-4.854962,0.595420,0.030534
0.035645,0.029785,1.093506,-4.885496,0.641221,0.099237
0.030273,0.022461,1.102051,-4.908397,0.679389,-0.045802
0.033447,0.025635,1.098145,-4.946565,0.519084,0.061069
0.042725,0.032959,1.101807,-4.984733,0.641221,0.068702
0.042480,0.029053,1.098145,-4.748092,0.564885,-0.045802
0.047363,0.032959,1.106934,-4.923664,0.625954,-0.022901
0.035645,0.031494,1.100830,-4.969466,0.717557,-0.122137
0.037109,0.022949,1.102295,-4.938931,0.549618,0.022901
0.039551,0.029541,1.110596,-4.923664,0.618321,-0.091603
0.041016,0.027344,1.101318,-4.832061,0.625954,-0.061069
0.039795,0.027100,1.108887,-4.900764,0.633588,-0.038168
0.041260,0.031250,1.098389,-4.847328,0.587786,-0.145038
0.044678,0.029297,1.100098,-4.908397,0.603053,-0.068702
0.049316,0.032959,1.102539,-4.877862,0.694656,-0.206107
0.038086,0.033447,1.099365,-4.748092,0.519084,-0.221374
0.033447,0.022217,1.097900,-4.847328,0.648855,-0.106870
0.043213,0.030029,1.099365,-4.893130,0.564885,-0.213740
0.037109,0.031738,1.102539,-4.900764,0.618321,0.038168
0.041260,0.026611,1.107178,-4.961832,0.595420,-0.320611
0.038574,0.029297,1.102295,-4.969466,0.687023,-0.045802
0.036865,0.026367,1.108643,-4.854962,0.625954,-0.190840
0.041748,0.032471,1.108887,-4.839694,0.664122,-0.083969
0.045166,0.028809,1.108154,-4.946565,0.587786,-0.022901
0.044434,0.035889,1.105225,-4.725191,0.725191,-0.114504
0.036133,0.028320,1.102783,-4.938931,0.580153,-0.030534
0.036621,0.028320,1.102539,-4.732824,0.549618,-0.106870
0.040283,0.029785,1.107422,-4.916030,0.526718,-0.099237
0.038574,0.024658,1.103516,-4.854962,0.549618,-0.007634
0.038818,0.029297,1.106689,-4.793893,0.587786,-0.061069
0.046387,0.033936,1.101318,-4.801527,0.633588,-0.068702
0.036621,0.029297,1.100342,-5.038168,0.740458,0.129771
0.038330,0.029297,1.104736,-4.916030,0.541985,0.076336
0.034424,0.027588,1.103027,-4.900764,0.572519,0.076336
0.041016,0.026855,1.100098,-4.946565,0.633588,0.083969
0.045166,0.033936,1.103516,-4.870229,0.580153,0.000000
0.045166,0.027588,1.094482,-4.694656,0.419847,-0.015267
0.042969,0.026367,1.105957,-5.000000,0.534351,-0.038168
0.039795,0.027588,1.099121,-4.931298,0.564885,0.114504
0.041016,0.030273,1.112549,-4.885496,0.618321,-0.083969
0.036865,0.025635,1.099854,-4.908397,0.625954,0.061069
0.033447,0.025146,1.101807,-4.992366,0.511450,-0.030534
0.035889,0.027832,1.095215,-4.786260,0.687023,-0.076336
0.036865,0.029297,1.101563,-4.938931,0.610687,0.030534
0.044189,0.029785,1.097900,-4.839694,0.450382,0.000000
0.046875,0.028320,1.102051,-4.900764,0.732824,-0.099237
0.036865,0.025879,1.101807,-4.961832,0.587786,-0.114504
0.036621,0.023682,1.112061,-4.862596,0.580153,-0.083969
0.037109,0.026855,1.101563,-4.778626,0.488550,0.000000
0.038818,0.025879,1.102295,-4.885496,0.442748,-0.236641
0.046875,0.030273,1.101318,-4.908397,0.694656,-0.152672
0.037354,0.028809,1.106934,-4.824428,0.717557,-0.083969
0.037354,0.029541,1.101563,-4.862596,0.763359,-0.152672
0.044678,0.028076,1.098877,-4.793893,0.580153,-0.122137
0.042480,0.022949,1.093750,-4.816794,0.725191,-0.114504
0.037354,0.031494,1.099365,-4.801527,0.534351,-0.068702
0.041016,0.028076,1.097900,-4.847328,0.534351,-0.061069
0.046631,0.031738,1.105957,-4.854962,0.580153,-0.221374
0.044922,0.031006,1.108643,-4.832061,0.648855,-0.122137
0.040527,0.027344,1.099609,-4.885496,0.496183,-0.114504
0.044189,0.024414,1.102783,-4.931298,0.541985,-0.190840
0.042236,0.034668,1.110840,-4.755725,0.648855,-0.114504
0.033447,0.033447,1.097412,-4.847328,0.603053,-0.038168
0.034668,0.028564,1.104004,-4.938931,0.580153,-0.022901
0.042480,0.031250,1.098633,-4.847328,0.709924,0.160305
0.044434,0.027588,1.103760,-4.885496,0.587786,-0.160305
0.041748,0.033936,1.094238,-4.847328,0.442748,0.122137
0.040771,0.028076,1.103027,-4.839694,0.679389,-0.091603
0.036133,0.027588,1.101807,-5.000000,0.725191,0.251908
0.040283,0.026123,1.094482,-4.977099,0.770992,0.038168
0.044922,0.026367,1.104736,-4.977099,0.725191,-0.068702
0.032471,0.029541,1.103271,-4.832061,0.694656,-0.076336
0.036865,0.028564,1.101074,-4.832061,0.664122,-0.007634
0.040771,0.036377,1.103027,-5.045802,0.671756,-0.099237
0.047363,0.028076,1.109131,-4.885496,0.618321,0.007634
0.041260,0.034424,1.113525,-4.893130,0.541985,0.007634
0.038086,0.025391,1.106934,-4.954198,0.595420,-0.022901
0.040527,0.026123,1.100098,-4.992366,0.679389,-0.068702
0.042236,0.026123,1.101074,-4.938931,0.603053,-0.053435
0.031494,0.023682,1.099365,-4.923664,0.641221,-0.007634
0.038574,0.025879,1.103271,-4.832061,0.595420,-0.022901
0.048096,0.027832,1.106689,-4.862596,0.839695,-0.106870
0.042969,0.032227,1.108643,-4.854962,0.564885,-0.106870
0.042969,0.026611,1.099365,-4.961832,0.732824,-0.114504
0.031006,0.031738,1.103516,-4.748092,0.564885,-0.282443
0.039063,0.030518,1.103516,-4.847328,0.435115,-0.206107
0.044678,0.030518,1.096680,-4.824428,0.610687,-0.068702
0.038086,0.026367,1.107422,-4.755725,0.648855,-0.068702
0.038086,0.027100,1.099609,-4.984733,0.633588,-0.076336
0.047607,0.027100,1.099365,-5.068702,0.610687,-0.274809
0.045166,0.031738,1.101563,-4.824428,0.740458,0.022901
0.044922,0.036865,1.100586,-4.977099,0.511450,-0.221374
0.038574,0.027100,1.099854,-4.809160,0.435115,-0.053435
0.045654,0.034912,1.095947,-4.900764,0.564885,-0.030534
0.041016,0.031006,1.108887,-4.839694,0.702290,-0.167939
0.035645,0.030273,1.098877,-4.893130,0.618321,0.083969
0.042480,0.026123,1.098389,-5.015267,0.526718,0.000000
0.044678,0.027588,1.101563,-4.862596,0.679389,-0.038168
0.048096,0.028809,1.100098,-4.519084,0.839695,-0.114504
0.029785,0.030029,1.090332,-5.030534,0.549618,0.137405
0.035400,0.028809,1.088379,-5.068702,0.496183,-0.015267
0.052734,0.024414,1.107910,-4.358778,0.770992,-0.083969
0.049561,0.020752,1.123535,-4.755725,0.732824,0.702290
0.051270,0.025391,1.102783,-4.984733,0.221374,2.946565
0.143311,0.024170,1.114014,-3.038168,1.671756,26.824427
-0.141846,0.147461,1.159668,-4.198473,-3.854962,-0.664122
0.031494,-0.072266,1.236328,9.396947,-0.595420,1.145038
0.171387,-0.163086,1.104492,13.137404,-2.045802,-21.114504
0.116699,-0.025391,1.099121,7.305344,-0.198473,-43.145039
-0.213135,0.260254,1.022705,3.526718,0.778626,-16.045801
0.111816,-0.049316,1.094971,1.862595,11.984733,-4.145038
0.126221,-0.043457,1.400879,59.251907,43.061069,-32.221375
-0.141357,0.195557,1.484375,99.526718,90.725189,-26.839695
-0.153564,0.260254,1.330322,147.587780,139.381680,-1.595420
-0.193115,0.342529,1.255371,145.839690,112.129770,23.809160
-0.136719,0.161377,1.285400,79.175575,33.900764,29.137405
-0.268555,0.291748,1.364014,74.702293,-12.862596,27.938931
-0.198242,0.321045,1.275146,95.206108,-24.908398,30.122137
-0.027344,0.349609,1.056152,105.709920,-34.198475,25.992367
-0.044434,0.338135,1.008301,113.106870,-29.900763,15.572519
-0.083496,0.447998,0.929199,145.511440,-11.351145,16.236641
-0.055908,0.533203,0.794922,164.053440,14.244275,23.526718
-0.056641,0.531494,0.984619,188.916030,39.343510,25.557251
-0.127441,0.660889,0.845947,163.007630,-26.954199,30.038168
-0.061279,0.614990,0.631348,136.908400,-65.007637,32.435116
0.042725,0.663086,0.534668,160.480910,-13.877863,20.717558
-0.056396,0.764893,0.561768,172.137410,30.557251,23.526718
-0.006348,0.771729,0.484863,148.473280,11.488549,24.633587
0.016357,0.773682,0.457031,121.557250,-9.763359,19.206106
0.034424,0.807373,0.380615,121.679390,-8.030535,16.595419
-0.030762,0.814209,0.298828,110.824420,-3.251908,8.198473
-0.008301,0.853271,0.250000,99.167938,0.587786,4.366412
0.021240,0.900635,0.279785,86.862595,-0.870229,-2.618321
0.042725,0.911377,0.214844,71.068703,-1.923664,-9.580153
0.042480,0.983398,0.160645,58.305344,-5.213740,-9.625955
0.015625,0.997559,0.130859,45.885498,-3.763359,-8.572519
-0.006592,0.969238,0.149170,41.900764,-0.778626,-6.847328
-0.022217,0.998535,0.113281,31.954199,-2.984733,-4.641222
0.011230,1.037598,0.112549,28.305344,-2.763359,-0.320611
-0.034180,1.019531,0.121582,23.381680,4.832061,-1.129771
-0.031250,1.036621,0.116699,14.709924,0.320611,1.664122
-0.003662,1.033936,0.117676,8.793893,-2.458015,2.564885
-0.012451,1.007324,0.135010,11.122137,1.618321,-0.480916
0.035400,0.965820,0.089844,14.076336,-0.534351,-4.519084
0.000488,1.084229,0.087646,11.106871,0.465649,-0.740458
-0.029785,1.024658,0.088135,6.763359,-1.099237,0.824427
-0.022949,0.991455,0.068848,5.106870,-5.206107,4.335878
-0.008057,1.041992,0.084229,6.969466,-4.671756,5.000000
-0.020264,1.003662,0.076904,6.389313,-4.061069,5.786260
0.019043,0.999268,0.065918,9.862596,-1.824427,5.633588
-0.003418,1.035645,0.090332,5.122138,-4.488550,4.916030
0.019287,1.004639,0.068359,2.297710,-5.900764,3.931298
0.014648,1.024902,0.046387,3.816794,-0.625954,2.641221
-0.006104,1.034180,0.042236,-0.343511,-2.511450,3.236641
0.005371,1.032715,0.046875,-4.641222,-2.725191,4.503817
0.020020,1.011230,0.056641,-3.824427,2.244275,2.007634
0.005615,0.994629,0.050537,-1.809160,1.900763,1.061069
0.004150,1.011230,0.042969,-4.198473,-3.221374,2.061069
0.005127,1.026367,0.070313,-4.740458,-1.526718,2.832061
0.015625,1.015381,0.057617,-3.755725,0.519084,1.259542
0.013916,1.009277,0.047363,-3.061069,1.419847,0.351145
0.011475,1.019043,0.067627,-3.076336,-0.656489,1.274809
0.012207,1.028076,0.053467,-3.893130,-0.251908,1.496183
0.008545,1.016357,0.045166,-5.725191,0.854962,0.786260
0.004150,1.006592,0.058838,-3.320611,0.847328,0.465649
0.020020,1.022949,0.051025,-1.770992,-2.748092,2.595420
0.013428,1.020752,0.046387,-1.687023,-1.854962,2.343511
0.015381,1.024170,0.050537,-2.648855,0.282443,0.839695
0.020508,1.012207,0.044434,-3.061069,-0.267176,0.328244
0.022949,1.017334,0.034180,-3.312977,0.061069,1.328244
0.018799,1.016602,0.035156,-5.557252,0.259542,1.274809
0.010498,1.009277,0.032959,-5.000000,0.633588,1.793893
0.012939,1.020996,0.052490,-3.465649,-0.404580,3.137405
0.005859,1.021973,0.046875,-3.305344,-1.748092,2.351145
0.017090,1.028076,0.047607,-4.091603,-3.259542,2.610687
0.024170,1.024902,0.077637,-3.167939,-2.099237,2.977099
0.036377,1.014893,0.063232,-0.961832,0.488550,1.396947
0.025879,1.004150,0.025879,-2.419847,-0.908397,0.961832
0.026367,1.012451,0.020508,-2.740458,-2.297710,1.832061
0.011230,1.030762,0.045654,-3.755725,-2.076336,2.083969
0.031982,1.008301,0.032715,-1.740458,-0.419847,0.595420
0.036621,1.019531,0.021729,-3.175573,-1.022901,-0.290076
0.030518,1.018799,0.011719,-5.725191,-1.404580,0.770992
0.044922,1.005615,0.038574,-4.740458,-0.274809,0.534351
0.034668,1.011963,0.020508,-4.648855,0.137405,0.244275
0.024902,1.018555,0.024902,-6.946565,1.549618,0.366412
0.015625,1.030518,0.036377,-8.198473,3.167939,1.206107
0.031006,1.014893,0.063232,-7.374046,2.877863,1.442748
0.038086,1.006592,0.042725,-5.694656,0.832061,0.656489
0.027100,1.020752,0.050049,-7.366412,-1.351145,0.389313
0.018066,1.021973,0.057373,-5.129771,2.145038,0.320611
0.023682,1.016846,0.056641,-4.030534,0.030534,0.641221
0.036133,1.010986,0.034424,-2.916031,-1.282443,0.389313
0.029297,1.030273,0.036133,-5.274809,-0.625954,0.343511
0.033691,1.000732,0.033203,-5.862596,1.900763,0.145038
0.040283,1.017090,0.026855,-5.488550,2.778626,-0.167939
0.002441,0.992432,0.048340,-8.954199,-0.229008,-0.541985
0.029785,1.013916,0.042480,-7.412214,2.221374,-0.038168
0.032715,1.031982,0.052979,-8.503817,2.473282,-1.083969
0.040771,1.030273,0.061279,-7.977099,2.198473,-1.290076
0.041016,1.021240,0.062012,-5.038168,0.938931,-0.671756
0.035645,1.014648,0.060547,-5.167939,-2.274809,0.030534
0.033936,1.020264,0.061035,-4.236641,-1.167939,-0.244275
0.016846,1.026123,0.053467,-2.961832,0.435115,-1.061069
0.030762,1.011963,0.038330,-4.259542,0.290076,-0.618321
0.025635,1.011230,0.046631,-2.694656,0.832061,0.496183
0.026855,1.026367,0.042480,-4.427481,-1.816794,1.709924
0.040771,1.025635,0.041260,-5.251908,0.076336,0.679389
0.019531,1.011963,0.055420,-4.305344,1.381679,0.679389
0.043701,1.019287,0.045898,-3.778626,0.564885,0.992366
0.036621,1.015869,0.050293,-4.503817,-0.687023,1.305344
0.038086,1.013184,0.044678,-4.244275,0.183206,1.519084
0.032959,1.018799,0.051758,-4.450382,0.603053,1.305344
0.032227,1.010010,0.051758,-4.396946,2.022901,-0.068702
0.021973,1.011475,0.042236,-3.389313,0.190840,-0.221374
0.029785,1.014404,0.041260,-3.977099,-2.175573,0.671756
0.037598,1.028076,0.044678,-4.656488,-0.938931,0.625954
0.041260,1.018555,0.049805,-4.946565,1.618321,-0.541985
0.031250,1.002686,0.038818,-4.709924,2.473282,-0.977099
0.037598,1.008057,0.043945,-3.740458,0.343511,-0.335878
0.032715,1.024658,0.050049,-3.305344,-1.358779,0.000000
0.031738,1.024658,0.044922,-4.076336,0.847328,-0.541985
0.018066,1.017334,0.040283,-4.389313,0.770992,-0.015267
0.034668,1.015137,0.039063,-2.847328,0.511450,0.717557
0.042725,1.013672,0.039795,-3.335878,-0.267176,0.251908
0.040771,1.019531,0.031494,-2.664122,1.137405,-0.732824
0.022705,1.012939,0.024902,-2.946565,0.526718,-0.083969
0.036621,1.023193,0.037354,-3.755725,1.328244,0.702290
0.040039,1.019043,0.038574,-5.427481,0.580153,0.328244
0.023682,1.002197,0.040527,-4.129771,0.694656,-0.175573
0.035889,1.004639,0.038574,-3.412214,-0.870229,0.274809
0.035156,1.025879,0.037354,-3.167939,-0.465649,0.511450
0.039551,1.029785,0.043213,-3.541985,1.206107,0.152672
0.024414,1.015625,0.034912,-4.015267,2.160305,-0.045802
0.038330,1.013428,0.028564,-4.167939,0.938931,-0.519084
0.037842,1.020020,0.039063,-4.625954,-0.404580,0.076336
0.036133,1.020020,0.022461,-5.167939,0.954198,0.305344
0.028320,1.015625,0.048096,-4.442748,1.977099,0.206107
0.041992,1.018555,0.033203,-5.312977,-0.274809,0.435115
0.033203,1.020020,0.032227,-4.908397,0.832061,0.190840
0.030762,1.010010,0.039795,-5.381680,0.282443,0.145038
0.036377,1.009521,0.030762,-4.183206,0.076336,-0.038168
0.042969,1.018311,0.036133,-4.534351,0.183206,-0.938931
0.031982,1.015869,0.034668,-3.893130,1.412214,-1.190840
0.032715,1.015625,0.028564,-3.938931,0.664122,0.183206
0.038086,1.024170,0.034912,-4.389313,-0.603053,1.244275
0.027588,1.023438,0.037598,-4.183206,0.465649,0.091603
0.031006,1.014893,0.038086,-4.526718,1.290076,-0.343511
0.035889,1.015137,0.028809,-3.854962,0.908397,-0.282443
0.036377,1.009766,0.014160,-4.152672,-0.160305,0.198473
0.037109,1.021973,0.027832,-4.671756,0.603053,-0.251908
0.039551,1.016602,0.036621,-4.580153,2.511450,-1.038168
0.022217,1.015381,0.023438,-5.137404,1.709924,-0.305344
0.026855,1.013184,0.021973,-5.809160,0.000000,0.526718
0.030762,1.024414,0.031006,-4.610687,0.442748,0.633588
0.036621,1.026123,0.036377,-5.557252,0.503817,0.770992
0.042480,1.020996,0.039551,-5.175572,2.664122,-0.465649
0.036621,1.011719,0.034912,-4.488550,1.648855,-0.320611
0.038086,1.016602,0.039551,-4.106870,-0.854962,0.290076
0.038574,1.020752,0.033447,-3.740458,-0.625954,0.091603
0.030762,1.026611,0.036133,-3.633588,1.175573,-0.328244
0.031250,1.010498,0.030518,-3.541985,1.267176,-0.396947
0.029541,1.006836,0.023438,-3.480916,0.381679,0.198473
0.035400,1.025635,0.026855,-3.908397,-0.305344,0.511450
0.034424,1.012207,0.039795,-3.213740,0.984733,-0.274809
0.039307,1.008057,0.032471,-4.312977,-0.404580,-0.389313
0.041504,1.028076,0.037109,-4.137404,0.595420,-0.351145
0.027588,1.019531,0.028320,-4.832061,1.145038,0.160305
0.037354,1.010742,0.030273,-4.175572,0.702290,-0.427481
0.034668,1.017578,0.026367,-4.221374,0.206107,-0.809160
0.031738,1.012207,0.032959,-4.351145,0.297710,-0.618321
0.029541,1.020752,0.030273,-4.106870,0.687023,-0.335878
0.034424,1.023926,0.022217,-3.824427,-0.213740,0.167939
0.033936,1.028809,0.015381,-4.473282,0.190840,1.000000
0.042480,1.022949,0.028076,-5.145038,1.572519,0.610687
0.029541,1.007324,0.038574,-4.404580,1.229008,0.908397
0.037598,1.012451,0.023682,-3.251908,-0.671756,0.603053
0.042725,1.013184,0.024170,-2.702290,-0.320611,-0.175573
0.028809,1.025146,0.024414,-3.603053,0.740458,0.022901
0.035889,1.010986,0.010254,-3.816794,1.664122,0.465649
0.043945,1.014404,0.021729,-4.816794,0.381679,0.610687
0.034180,1.011719,0.014160,-5.564886,-0.045802,-0.145038
0.030029,1.014893,0.017334,-5.603054,1.297710,-0.236641
0.032471,1.005615,0.019531,-5.366412,0.961832,-0.068702
0.047363,1.026611,0.032471,-5.099236,0.053435,0.671756
0.033447,1.024902,0.027588,-5.236641,-0.137405,0.091603
0.034912,1.009521,0.023926,-6.312977,0.190840,0.083969
0.031250,1.001221,0.031982,-4.725191,1.274809,-0.221374
0.045654,1.010498,0.044678,-3.748092,-0.229008,-0.404580
0.036377,1.020996,0.028809,-2.763359,0.244275,-1.137405
0.029541,1.019775,0.018066,-3.038168,0.007634,-1.412214
0.013428,1.018555,0.011719,-4.328244,0.022901,0.022901
0.030029,1.024414,0.020020,-4.877862,0.450382,0.877863
0.044189,1.012695,0.036865,-4.038168,0.694656,0.000000
0.034912,1.020020,0.018555,-4.320611,1.229008,-0.244275
0.033691,1.022217,0.006836,-5.312977,2.358779,0.473282
0.025635,1.012939,0.023926,-5.595420,2.175573,0.847328
0.038574,1.007080,0.025146,-5.190840,0.381679,1.000000
0.034668,1.010986,0.040283,-3.648855,-0.412214,0.450382
0.042236,1.020752,0.022461,-3.687023,1.656489,-0.297710
0.022705,1.023926,0.016602,-4.557252,1.908397,-0.290076
0.039795,1.018555,0.021484,-4.541985,-0.557252,0.633588
0.048096,1.024414,0.021240,-3.152672,-1.244275,0.763359
0.040771,1.018311,0.019287,-3.091603,0.358779,0.236641
0.031250,1.014160,0.013428,-3.938931,1.778626,-0.450382
0.032471,1.007568,0.025635,-3.885496,1.458015,-0.465649
0.045166,1.005127,0.020996,-2.358779,0.748092,-0.778626
0.036865,1.009766,-0.000977,-3.572519,-1.267176,-0.984733
0.022217,1.025391,0.023438,-5.190840,-0.572519,-0.419847
0.026123,1.023926,0.012207,-7.709924,-1.557252,-0.015267
0.051025,1.008057,0.000732,-5.938931,-0.229008,-0.145038
0.033447,1.017334,0.018066,-6.709924,-1.488550,0.725191
0.041748,1.018066,0.028564,-5.603054,-0.595420,0.870229
0.041748,1.019043,0.020752,-6.442748,-0.954198,0.152672
0.030762,1.014160,0.030273,-5.961832,0.503817,-0.129771
0.036377,1.007568,0.020996,-5.664122,-0.396947,-0.236641
0.045166,1.011963,0.016602,-4.916030,-1.000000,-0.664122
0.031738,1.028320,0.036133,-5.297710,-2.061069,0.129771
0.034668,1.020020,0.022461,-4.916030,0.137405,0.244275
0.029053,1.018555,0.021484,-6.526718,0.259542,-0.198473
0.031982,1.014404,0.020996,-5.687023,1.106870,-0.587786
0.037598,1.007324,0.024658,-4.633588,-0.480916,0.015267
0.038086,1.009277,0.018311,-4.488550,-0.564885,-0.221374
0.039307,1.024170,0.014160,-4.328244,0.114504,0.137405
0.040527,1.021240,0.022705,-5.381680,0.221374,0.236641
0.031250,1.010254,0.017578,-5.038168,1.351145,-0.473282
0.030029,1.010010,0.023193,-4.961832,-0.366412,-0.053435
0.041260,1.012207,0.026611,-4.167939,-0.740458,0.526718
0.036133,1.015137,0.024170,-3.427481,0.190840,-0.396947
0.032959,1.018066,0.024414,-4.809160,0.832061,-0.290076
0.037598,1.011230,0.027344,-5.160306,0.305344,-0.038168
0.041260,1.010498,0.024414,-4.229008,-0.290076,0.030534
0.031250,1.019531,0.013428,-4.183206,0.893130,-0.381679
0.035889,1.022705,0.021484,-5.297710,0.740458,-0.374046
0.034180,1.018555,0.018799,-5.206107,0.450382,0.137405
0.053467,1.015869,0.018555,-4.732824,-0.129771,0.068702
0.030762,1.023193,0.025391,-5.000000,0.511450,0.221374
0.037598,1.010742,0.020020,-4.664122,1.366412,-0.099237
0.029541,1.018066,0.021240,-5.076336,0.458015,0.022901
0.039307,1.018311,0.020508,-5.496183,-0.740458,0.938931
0.044678,1.016602,0.029785,-3.717557,0.343511,0.328244
0.041260,1.017334,0.017090,-3.885496,0.763359,-0.251908
0.031982,1.010010,0.022949,-4.038168,1.183206,-0.625954
0.043945,1.017578,0.032471,-3.274809,-0.083969,-0.122137
0.034180,1.017578,0.011230,-3.007634,-0.137405,-0.206107
0.046143,1.022217,0.022217,-3.587786,0.267176,-0.198473
0.042969,1.020752,0.013428,-4.351145,0.625954,-0.206107
0.043457,1.015137,0.017578,-4.648855,0.618321,-0.725191
0.026123,1.005127,0.010010,-4.396946,-0.312977,-0.106870
0.035889,1.015137,0.011230,-4.488550,-0.824427,0.534351
0.046143,1.024658,0.012695,-5.038168,0.587786,0.625954
0.031006,1.016846,0.012451,-5.183206,1.923664,-0.022901
0.027832,1.008301,0.017578,-4.885496,0.977099,0.412214
0.038330,1.010254,0.020020,-4.450382,-0.511450,0.633588
0.040039,1.015625,0.025391,-3.656489,-0.061069,0.320611
0.038330,1.016357,0.026611,-4.206107,0.106870,-0.435115
0.040771,1.014404,0.018555,-3.358779,0.328244,-0.893130
0.022705,1.017578,0.001953,-3.938931,-0.274809,0.000000
0.035645,1.017578,0.013184,-4.931298,0.610687,0.778626
0.037598,1.017334,0.014893,-6.038168,1.251908,0.793893
0.044189,1.012207,0.007568,-5.595420,0.954198,0.778626
0.038086,1.009766,0.013672,-5.755725,0.137405,0.534351
0.045166,1.013184,0.023682,-5.564886,0.770992,-0.206107
0.039307,1.008789,0.009033,-5.412214,1.122137,-0.503817
0.036621,1.025635,0.002441,-6.465649,1.709924,0.099237
0.035645,1.015869,0.005859,-8.290076,1.992366,0.549618
0.027588,1.020020,0.005127,-9.877863,0.931298,1.335878
0.051758,1.007813,0.003906,-10.923664,2.419847,1.221374
0.037109,1.016113,0.008057,-12.916031,4.122138,0.603053
0.051758,1.015137,-0.017822,-15.190840,6.061069,0.351145
0.039551,1.009521,-0.007813,-19.580153,7.335878,1.938931
0.045166,1.016113,-0.005127,-26.068703,6.610687,2.358779
0.051758,1.012939,0.011963,-32.549618,6.198473,0.312977
0.047363,1.002930,0.025635,-40.648853,5.931298,1.419847
0.033447,0.985840,0.059814,-46.099236,7.603054,0.000000
0.041260,1.013672,0.106201,-44.145039,10.893129,-2.641221
0.058350,1.000000,0.106201,-46.625954,12.442748,-6.473282
0.037354,1.011230,0.132568,-52.366413,7.000000,-7.000000
0.005615,0.985352,0.174072,-54.885498,2.832061,-4.496183
0.021484,1.022705,0.195068,-58.885498,-5.755725,-2.312977
0.039551,1.009033,0.254150,-56.625954,-12.305344,-0.549618
0.039795,1.010010,0.242920,-51.961834,-3.061069,-2.366412
0.030029,0.986328,0.284180,-51.595421,-0.755725,-1.557252
0.039551,0.982422,0.252197,-56.251907,-0.664122,-2.396947
0.004150,0.997559,0.288574,-63.229008,-2.977099,-1.305344
0.024658,0.969238,0.310059,-65.839691,-2.862595,0.557252
0.031006,0.948730,0.354004,-64.183205,-2.351145,0.893130
0.020508,0.979248,0.366211,-70.847328,-10.251908,4.129771
0.041748,0.972656,0.388184,-77.366409,-5.984733,4.877862
0.033936,0.936279,0.443359,-80.045799,2.709924,4.015267
0.019043,0.919434,0.526611,-79.091606,-2.595420,4.076336
0.047852,0.909424,0.543457,-77.778625,-12.229008,4.305344
0.076416,0.874756,0.549561,-75.366409,-11.877863,3.175573
0.040283,0.875488,0.595215,-76.893127,-16.068703,4.679389
0.067871,0.849365,0.639648,-66.625954,-11.801527,4.419847
0.072021,0.862305,0.689453,-51.908398,-7.786260,3.809160
0.079590,0.847412,0.683105,-49.496181,-12.618320,4.358778
0.076172,0.842773,0.693848,-51.954197,-12.381680,4.641222
0.082031,0.806641,0.720703,-51.793892,-11.511451,3.992366
0.084473,0.791260,0.719238,-41.816795,-6.931298,3.068702
0.098877,0.803467,0.753174,-27.732824,-2.938931,1.786260
0.104980,0.804199,0.756592,-18.137405,-2.496183,0.961832
0.090332,0.797363,0.774902,-11.549619,-3.961832,0.839695
0.093506,0.779053,0.776611,-7.519084,-8.389313,0.305344
0.096680,0.801514,0.717041,-6.137404,-5.129771,0.053435
0.078613,0.801025,0.719971,-7.534351,-1.458015,1.656489
0.099365,0.767822,0.718262,-8.557252,-2.832061,0.732824
0.090576,0.768066,0.702148,-7.229008,1.000000,-0.427481
0.083740,0.799072,0.694824,-8.022901,4.435114,0.419847
0.089844,0.789307,0.695557,-10.679389,4.251908,2.022901
0.087402,0.797607,0.735596,-10.465649,5.488550,3.435115
0.099121,0.801758,0.736572,-10.961832,2.503817,5.679389
0.107910,0.785400,0.751465,-8.061069,4.015267,5.267176
0.114014,0.752686,0.760742,-7.793893,2.213740,1.946565
0.101563,0.757568,0.743408,-4.213740,0.290076,-0.786260
0.093750,0.791504,0.740723,-2.190840,-0.969466,-0.297710
0.091309,0.790039,0.748047,-0.519084,0.305344,0.656489
0.090332,0.781250,0.725830,-2.236641,-0.137405,0.770992
0.097900,0.781494,0.720215,-3.511450,1.809160,1.106870
0.086914,0.776123,0.725342,-5.801527,1.656489,1.458015
0.104004,0.781738,0.734619,-5.687023,1.412214,1.076336
0.096924,0.788086,0.728516,-4.007634,1.435115,1.091603
0.104736,0.784180,0.726563,-4.496183,1.885496,0.885496
0.102051,0.785156,0.737793,-5.068702,2.435115,0.450382
0.088135,0.790283,0.734131,-5.358778,2.175573,0.458015
0.094971,0.774902,0.725830,-5.236641,0.694656,0.122137
0.101563,0.780762,0.710449,-4.320611,2.694656,-0.656489
0.088623,0.791992,0.726318,-6.671756,2.083969,0.687023
0.086914,0.787842,0.734619,-5.954198,2.007634,0.893130
0.103027,0.794922,0.737793,-4.450382,2.282443,1.648855
0.099121,0.782715,0.755127,-5.366412,0.381679,1.099237
0.099365,0.761230,0.740479,-3.175573,0.419847,-0.534351
0.113037,0.768311,0.746582,-0.320611,0.839695,-2.816794
0.094238,0.781738,0.743652,1.007634,-0.358779,-3.480916
0.076904,0.787842,0.732422,1.641221,-0.862595,-3.297710
0.086182,0.788330,0.702637,0.526718,-0.007634,-2.526718
0.085205,0.794189,0.705322,-0.320611,0.992366,-1.389313
0.075684,0.796143,0.708740,-2.045802,0.977099,0.595420
0.088623,0.795654,0.710938,-4.290076,0.137405,1.312977
0.097900,0.794678,0.713135,-5.511450,0.625954,1.442748
0.094727,0.781250,0.718262,-5.725191,0.641221,1.091603
0.083740,0.787842,0.717041,-7.145038,0.709924,-0.374046
0.083252,0.789551,0.704834,-8.374045,1.038168,-0.770992
0.095703,0.797363,0.733398,-8.984733,-0.007634,-0.137405
0.093994,0.789551,0.719727,-8.572519,0.603053,-0.267176
0.092529,0.781738,0.717285,-7.748092,0.259542,-0.732824
0.090332,0.785400,0.716309,-5.908397,1.312977,-0.091603
0.090332,0.778809,0.734863,-7.862596,0.366412,0.274809
0.096680,0.789795,0.739746,-7.969466,1.030534,0.099237
0.085693,0.781738,0.742188,-6.366412,1.793893,0.259542
0.096436,0.771973,0.735840,-5.061069,0.557252,-0.053435
0.083740,0.786621,0.736816,-3.664122,0.809160,0.198473
0.095703,0.789063,0.734131,-5.641222,-0.351145,0.007634
0.094971,0.787109,0.725098,-5.183206,1.702290,-0.305344
0.094971,0.782715,0.720947,-5.839694,0.648855,-0.297710
0.087158,0.773682,0.712158,-6.480916,2.312977,0.389313
0.092285,0.786865,0.732666,-8.671756,1.038168,0.427481
0.099365,0.786377,0.747803,-8.442748,1.160305,0.167939
0.092773,0.790527,0.743164,-6.305344,2.358779,-0.297710
0.085449,0.790771,0.728027,-5.641222,0.412214,0.549618
0.101318,0.774170,0.739746,-4.244275,0.358779,0.984733
0.101318,0.774658,0.758789,-3.351145,0.702290,0.473282
0.096924,0.772705,0.734619,-4.114504,0.793893,-0.679389
0.094238,0.781982,0.728271,-3.160305,1.679389,-0.709924
0.089111,0.781250,0.727295,-3.106870,0.793893,-0.022901
0.090820,0.780518,0.729736,-3.106870,0.877863,0.038168
0.093018,0.778809,0.741211,-4.893130,0.633588,-0.786260
0.084961,0.781006,0.718506,-6.312977,0.961832,-0.694656
0.089355,0.793701,0.735107,-6.343512,1.549618,0.137405
0.079102,0.777588,0.729736,-6.832061,0.381679,1.351145
0.091309,0.765381,0.740234,-6.152672,0.480916,0.954198
0.090332,0.771973,0.740723,-4.824428,1.396947,-0.832061
0.083496,0.788574,0.745850,-6.076336,1.854962,-0.801527
0.087891,0.777100,0.730469,-5.595420,-0.099237,0.389313
0.094482,0.780029,0.739746,-3.770992,0.526718,0.366412
0.079346,0.773438,0.745117,-3.954198,0.572519,-0.198473
0.083008,0.779785,0.734375,-4.190840,1.641221,-0.664122
0.096436,0.781982,0.723389,-5.282443,1.374046,-0.229008
0.084717,0.780029,0.720947,-5.549618,1.061069,0.267176
0.084961,0.779785,0.734863,-6.068702,-0.061069,0.664122
0.100830,0.775391,0.740723,-4.419847,0.564885,-0.061069
0.087402,0.784912,0.738770,-5.664122,1.167939,-0.534351
0.096680,0.773682,0.735107,-5.885496,0.916031,-0.687023
0.075928,0.777344,0.731445,-5.877862,1.106870,-0.160305
0.085938,0.789063,0.728271,-6.076336,0.679389,0.900763
0.092529,0.779297,0.733398,-6.351145,1.931298,0.832061
0.096924,0.774170,0.744385,-7.419847,2.274809,-0.251908
0.089600,0.780518,0.752686,-6.541985,2.603053,-0.900763
0.080078,0.780518,0.741455,-6.083970,2.389313,-0.824427
0.083252,0.777100,0.740479,-5.259542,1.000000,-0.549618
0.084473,0.779053,0.735840,-3.458015,1.793893,-0.847328
0.084473,0.773926,0.747559,-5.465649,2.099237,-0.694656
0.084473,0.772461,0.728027,-6.412214,3.099237,-0.511450
0.082520,0.770752,0.724121,-5.885496,3.717557,-1.137405
0.078857,0.783691,0.730469,-7.175572,4.190840,-0.801527
0.084229,0.781982,0.746338,-8.206107,2.748092,-0.473282
0.085205,0.780273,0.748535,-7.198473,3.137405,-0.351145
0.084961,0.773682,0.757568,-5.938931,2.091603,-0.091603
0.065186,0.773682,0.749512,-6.595420,1.763359,0.129771
0.080322,0.776367,0.744629,-5.419847,1.351145,0.305344
0.081543,0.779297,0.734863,-5.343512,1.129771,0.396947
0.080322,0.765625,0.741455,-5.465649,-0.015267,0.106870
0.080566,0.777588,0.739746,-4.106870,1.541985,0.068702
0.087402,0.769531,0.744629,-5.389313,0.893130,0.198473
0.088135,0.776855,0.738281,-5.587786,0.007634,0.045802
0.073730,0.759033,0.741943,-4.977099,1.229008,-0.641221
0.081299,0.767334,0.747803,-5.206107,1.206107,-1.206107
0.077393,0.782715,0.742432,-6.343512,0.725191,-0.786260
0.075439,0.775391,0.736328,-6.305344,3.389313,-0.694656
0.062744,0.778564,0.732666,-8.511451,1.992366,1.053435
0.072266,0.769287,0.750000,-6.648855,2.244275,0.938931
0.077637,0.775879,0.747559,-4.870229,3.114504,0.961832
0.082764,0.767578,0.745361,-4.282443,3.610687,0.389313
0.071533,0.779053,0.748779,-5.061069,1.404580,0.671756
0.070068,0.776611,0.757080,-4.603054,1.267176,1.114504
0.076416,0.762451,0.750244,-5.221374,-1.198473,1.206107
0.078369,0.763916,0.739014,-3.541985,0.824427,0.038168
0.064941,0.771484,0.733887,-6.389313,1.129771,-0.244275
0.067627,0.766846,0.750244,-7.381680,0.366412,0.068702
0.094971,0.762451,0.747559,-5.702290,0.396947,0.007634
0.086426,0.777100,0.752441,-5.045802,1.099237,-0.259542
0.071045,0.785889,0.757813,-5.809160,2.114504,0.190840
0.077148,0.767822,0.742676,-6.213740,1.412214,0.122137
0.079834,0.763184,0.757813,-5.488550,-0.366412,-0.610687
0.081543,0.767090,0.750244,-3.122137,-0.099237,-1.145038
0.075195,0.769531,0.742920,-2.725191,1.824427,-1.305344
0.064453,0.770508,0.722656,-6.977099,3.038168,-0.816794
0.067627,0.770264,0.734131,-8.969465,0.946565,0.297710
0.075439,0.762451,0.739990,-9.328244,1.167939,1.022901
0.075195,0.762207,0.759521,-7.732824,3.297710,0.587786
0.071777,0.761719,0.755371,-8.847328,2.053435,0.648855
0.087402,0.765137,0.755859,-6.816794,0.740458,0.160305
0.095947,0.784668,0.762207,-5.519084,1.473282,-0.595420
0.072754,0.790527,0.761475,-6.633588,1.732824,1.587786
0.069824,0.743896,0.761963,-4.900764,0.564885,1.877863
0.078613,0.754395,0.754150,-3.404580,-0.938931,0.206107
0.073486,0.760742,0.758301,-3.267176,1.091603,-0.396947
0.081299,0.760742,0.742920,-4.946565,2.015267,-0.450382
0.068359,0.751709,0.757813,-6.687023,2.702290,-1.541985
0.067627,0.767090,0.760010,-6.022901,1.595420,-1.465649
0.074463,0.773682,0.759521,-4.274809,0.595420,-0.038168
0.065430,0.781250,0.754883,-3.839695,2.916031,0.473282
0.061279,0.762695,0.736572,-6.549618,3.641221,0.992366
0.059570,0.763428,0.756836,-5.595420,3.503817,1.763359
0.060791,0.768555,0.737305,-6.740458,2.221374,3.137405
0.067383,0.763672,0.728760,-8.961832,4.259542,3.572519
0.078125,0.760010,0.756348,-12.099236,3.335878,3.832061
0.082031,0.747070,0.760010,-12.862596,3.175573,2.427481
0.089355,0.758789,0.773438,-11.954199,2.702290,1.160305
0.079590,0.754639,0.776855,-10.793893,2.167939,1.175573
0.079834,0.764893,0.783447,-10.465649,2.549618,1.763359
0.071533,0.735596,0.775146,-9.816793,0.885496,1.404580
0.067383,0.734863,0.765869,-7.992366,2.534351,-0.061069
0.070557,0.741943,0.789307,-8.854961,1.114504,-0.633588
0.073486,0.745850,0.791504,-9.312977,1.183206,-0.045802
0.068848,0.729248,0.788330,-6.519084,1.404580,-0.511450
0.075928,0.740234,0.794434,-4.954198,-1.404580,-1.312977
0.082520,0.753174,0.792725,-2.473282,0.381679,-2.091603
0.070557,0.758789,0.795410,-1.366412,0.702290,-1.229008
0.063232,0.739990,0.782471,-0.854962,-2.854962,-0.519084
0.064453,0.740479,0.772949,0.740458,-1.786260,-0.694656
0.066406,0.761475,0.771240,-0.328244,-0.679389,-0.190840
0.057861,0.745850,0.755127,-1.770992,-0.595420,0.381679
0.060547,0.747559,0.756104,-0.862595,-0.694656,0.229008
0.080811,0.759766,0.746582,-1.412214,-1.045802,0.458015
0.072021,0.756592,0.758301,-2.526718,0.816794,0.870229
0.069092,0.754883,0.763672,-2.305344,0.000000,0.503817
0.078369,0.762695,0.752197,-2.931298,-0.183206,0.610687
0.081055,0.751709,0.744385,-3.000000,0.877863,0.343511
0.062988,0.756592,0.753418,-4.900764,0.282443,0.564885
0.078613,0.759033,0.764648,-4.274809,0.839695,0.717557
0.074707,0.767334,0.757080,-4.694656,0.534351,1.114504
0.085449,0.760010,0.758789,-4.274809,0.511450,1.152672
0.073486,0.761719,0.758789,-5.412214,0.328244,1.396947
0.077393,0.746826,0.759766,-5.221374,1.068702,0.732824
0.057129,0.753174,0.735596,-6.442748,2.122137,0.702290
0.072510,0.755371,0.749023,-9.091603,2.412214,1.160305
0.075928,0.743408,0.747559,-11.030535,3.595420,0.282443
0.055664,0.750732,0.744873,-14.305344,3.854962,0.763359
0.060547,0.761475,0.740967,-14.938931,5.488550,2.488550
0.058838,0.751221,0.724121,-17.442749,2.732824,5.007634
0.065430,0.739014,0.732666,-23.045801,3.106870,4.755725
0.089600,0.729736,0.719238,-31.969465,11.389313,3.725191
0.044434,0.719238,0.720459,-48.862595,13.374045,4.068702
0.047607,0.692383,0.763428,-61.114502,18.908398,4.916030
0.062988,0.667725,0.783203,-75.946564,19.290077,4.099236
0.068359,0.656738,0.843506,-91.633591,22.908398,5.786260
0.049805,0.614746,0.843750,-103.229000,23.412214,8.847328
0.029053,0.546875,0.894775,-104.549620,19.557251,7.557252
0.032959,0.507324,0.885010,-101.427480,13.664123,5.137404
0.017334,0.490479,0.896729,-99.885498,11.786260,3.312977
0.048828,0.455078,0.989258,-105.748090,14.786260,4.251908
0.052246,0.404785,1.030029,-111.320610,15.984733,5.854962
0.052979,0.295166,1.066650,-111.419850,8.923664,1.931298
0.026611,0.276855,1.008545,-95.954201,11.526717,-6.770992
-0.010254,0.253174,1.072998,-86.900764,18.290077,-11.656488
-0.008301,0.239746,1.132324,-78.694656,16.610687,-15.938931
0.000000,0.249268,1.107422,-86.068703,-2.343511,-14.778625
0.020020,0.166260,1.038086,-99.145035,-0.946565,-10.625955
-0.006836,0.124512,1.103516,-92.320610,19.923664,-10.251908
-0.054443,0.131104,1.221436,-77.282440,13.534351,-7.603054
-0.018799,0.072754,1.180176,-69.793892,-2.992366,-5.083970
-0.026123,0.020020,1.156982,-57.473282,-5.961832,-4.931298
-0.033447,0.040771,1.218994,-37.007633,-3.847328,-4.839694
-0.008301,0.032471,1.203613,-14.885496,0.923664,-3.854962
0.000977,-0.011719,1.189941,-7.343512,-1.908397,-3.923664
-0.013184,0.016357,1.176514,0.351145,-6.274809,-3.778626
-0.017822,0.025635,1.160889,10.320611,-7.099236,-2.053435
-0.000488,0.019775,1.124268,13.931297,-4.381680,-1.015267
0.011719,0.045654,1.096436,16.381680,-3.160305,-0.870229
0.003662,0.055908,1.117188,10.160305,-3.412214,1.076336
0.004150,0.060547,1.058105,4.755725,-5.969466,2.404580
0.007080,0.065674,1.054199,1.740458,-2.854962,1.709924
0.010498,0.055176,1.085205,0.877863,3.068702,0.030534
0.018066,0.068604,1.080322,-2.236641,1.877863,-1.816794
0.002930,0.065186,1.100830,-5.862596,1.832061,-2.068702
0.003906,0.063232,1.112061,-3.603053,4.015267,-2.213740
-0.010254,0.074219,1.092285,-4.038168,1.702290,-2.305344
-0.002197,0.064453,1.100098,-6.167939,-1.969466,-2.267176
0.013672,0.063721,1.102539,-7.091603,-1.007634,0.106870
-0.005371,0.065674,1.095947,-4.725191,1.648855,1.580153
0.000488,0.065430,1.102783,-3.458015,-0.259542,0.870229
0.000488,0.055664,1.116699,-2.832061,-1.770992,0.198473
0.003906,0.074219,1.094727,-3.229008,-1.801527,-0.091603
0.006836,0.085938,1.085449,-2.312977,-0.763359,0.206107
0.011963,0.083008,1.099854,-1.045802,-0.793893,0.961832
0.010254,0.069336,1.092041,-1.435115,-0.687023,0.862595
0.008789,0.062256,1.098633,-3.549618,-0.633588,0.900763
0.013428,0.068848,1.105957,-4.229008,-0.893130,0.167939
0.010742,0.080322,1.091553,-5.297710,-1.244275,0.190840
0.003662,0.075195,1.098633,-4.526718,-0.801527,0.244275
0.009033,0.064209,1.104736,-4.633588,0.603053,-0.435115
0.010986,0.064941,1.108643,-4.877862,0.221374,-0.099237
0.002197,0.068115,1.100342,-6.465649,-1.564885,0.251908
0.015625,0.070068,1.091553,-5.282443,0.938931,-0.175573
0.016846,0.074219,1.113037,-4.320611,1.343511,-0.725191
0.003174,0.074951,1.087158,-7.503817,-1.648855,-0.748092
0.008057,0.073730,1.089355,-8.076336,-0.633588,0.687023
0.010498,0.055908,1.113525,-6.503817,0.114504,0.526718
0.007080,0.076904,1.127930,-2.496183,1.083969,1.679389
0.008545,0.085938,1.120605,-1.534351,-1.419847,3.160305
0.026611,0.058594,1.075928,-6.641222,-4.381680,2.312977
0.023438,0.069824,1.099854,-5.175572,-2.229008,1.610687
0.021240,0.075684,1.093262,-3.908397,-1.854962,1.297710
0.027832,0.073242,1.100098,-5.984733,-2.343511,0.595420
0.029541,0.076172,1.090088,-6.450382,-1.381679,0.206107
0.016113,0.078613,1.092041,-6.603054,-1.106870,1.145038
0.033447,0.063721,1.112061,-7.480916,-2.221374,1.847328
0.026611,0.065430,1.116943,-9.839695,-6.778626,0.267176
0.026367,0.074707,1.077148,-10.137404,-6.496183,0.335878
0.043457,0.071289,1.101318,-5.564886,-2.259542,0.167939
0.030273,0.052490,1.098633,-6.717557,-3.412214,0.832061
0.034668,0.061035,1.080566,-10.358779,-5.206107,1.465649
0.041260,0.081543,1.094482,-7.351145,-3.480916,0.427481
0.032715,0.076416,1.130371,-6.893130,-3.335878,-0.809160
0.052490,0.080078,1.106201,-6.946565,-1.740458,-0.091603
0.033936,0.080078,1.109131,-4.969466,-0.908397,-1.007634
0.019775,0.110840,1.103271,-3.748092,-1.038168,-0.076336
0.039551,0.061035,1.103271,-7.984733,-3.442748,0.297710
0.044434,0.051270,1.101074,-6.305344,-0.664122,0.755725
0.042236,0.053711,1.106934,-4.732824,-0.473282,0.183206
0.049805,0.051514,1.104980,-3.587786,-0.679389,0.519084
0.046631,0.066406,1.102051,-4.259542,-1.442748,1.122137
0.048828,0.040771,1.090332,-8.709924,-4.984733,0.954198
0.048096,0.048828,1.095459,-9.793893,-4.671756,1.015267
0.059814,0.058594,1.107422,-3.259542,1.526718,0.954198
0.053955,0.050293,1.105957,-2.832061,2.328244,0.396947
0.069824,0.037842,1.055420,-3.801527,1.954198,-0.167939
0.042969,0.037354,1.095947,-6.282443,0.152672,-1.106870
0.078125,-0.009033,1.097168,-6.488550,1.061069,-1.847328
0.045654,0.046875,1.143799,-3.473282,0.259542,-2.083969
0.059570,0.037354,1.106689,-2.114504,0.358779,-2.358779
0.036621,0.082764,1.095459,-3.167939,-1.564885,-2.885496
0.056641,0.066406,1.088623,-10.167939,-8.213740,-1.709924
0.053467,0.050293,1.088379,-5.801527,-0.015267,-1.541985
0.046387,0.055908,1.077637,-8.946565,-0.450382,-1.137405
0.056152,0.053711,1.090332,-12.213740,-2.473282,-0.564885
0.063721,0.049805,1.097412,-10.335877,-0.656489,0.305344
0.064697,0.048340,1.129395,-10.312977,-5.061069,0.427481
0.072754,0.020752,1.112793,-4.236641,-2.015267,-0.419847
0.047119,0.041504,1.075195,-6.297710,-4.038168,-0.648855
0.055176,0.048340,1.100342,-8.000000,-3.755725,1.679389
0.078369,0.025879,1.093262,-5.534351,-1.167939,2.610687
0.077393,0.035400,1.100830,-5.755725,-1.587786,2.236641
0.071533,0.021484,1.102783,-4.083970,-3.381679,-0.770992
0.063721,0.044189,1.078857,-5.419847,0.335878,-1.229008
0.072510,0.023438,1.085938,-5.694656,2.435115,-2.503817
0.070557,0.049072,1.120361,-3.305344,2.793893,-1.603053
0.064209,0.046387,1.113281,-0.839695,2.183206,-0.274809
0.072266,0.057617,1.106201,-0.351145,-0.045802,-0.290076
0.083252,0.045166,1.088867,3.488550,5.801527,-1.122137
0.065674,0.048584,1.095215,1.793893,4.061069,-1.641221
0.067383,0.059082,1.098145,-1.122137,-1.473282,-1.916031
0.058350,0.058838,1.080078,-0.709924,-0.557252,-2.022901
0.058838,0.060791,1.087891,-0.022901,0.763359,-2.076336
0.068604,0.065186,1.085693,-2.160305,-1.442748,-1.969466
0.071289,0.054199,1.107178,-1.274809,-1.419847,-2.511450
0.061523,0.052734,1.099609,0.328244,-1.755725,-3.236641
0.075439,0.062012,1.100586,0.236641,-1.419847,-3.351145
0.080566,0.064453,1.088135,-3.488550,-2.725191,-2.396947
0.072754,0.082275,1.100830,-4.755725,-1.435115,-1.366412
0.066650,0.066895,1.099854,-3.977099,-1.526718,-1.854962
0.073242,0.068115,1.097900,-3.557252,-3.152672,-2.221374
0.078613,0.056396,1.099854,-5.793893,-3.381679,-0.816794
0.084717,0.067627,1.096680,-7.198473,-1.534351,-1.167939
0.074219,0.068604,1.103516,-6.297710,-1.679389,-0.809160
0.069092,0.066895,1.118896,-2.480916,-2.687023,-0.167939
0.097412,0.073486,1.086182,-1.862595,-1.977099,0.167939
0.083984,0.078613,1.091553,-4.793893,0.923664,0.916031
0.084473,0.067383,1.111816,-6.603054,3.717557,1.992366
0.079834,0.060547,1.093994,-6.664122,1.427481,1.244275
0.074463,0.071533,1.094727,-4.671756,-1.595420,0.534351
0.083008,0.077637,1.084717,-2.206107,1.351145,0.045802
0.081787,0.071289,1.112305,-3.320611,3.625954,0.480916
0.075684,0.052734,1.099365,-7.755725,-0.007634,1.137405
0.073486,0.059814,1.093994,-5.458015,0.847328,0.190840
0.076904,0.064453,1.091553,-3.480916,1.175573,0.167939
0.075439,0.070313,1.107178,-4.396946,2.328244,0.526718
0.081787,0.068359,1.094238,-6.954198,1.167939,0.923664
0.075439,0.068604,1.089111,-5.145038,1.259542,0.328244
0.073730,0.063232,1.097900,-5.160306,0.167939,-0.152672
0.087402,0.064941,1.112549,-5.839694,0.366412,-0.488550
0.068604,0.073242,1.091553,-4.946565,1.152672,-0.022901
0.081787,0.072510,1.091797,-3.832061,0.648855,-0.404580
0.070068,0.057129,1.102295,-3.595420,-0.389313,-0.832061
0.081543,0.066650,1.099121,-5.664122,0.015267,-0.236641
0.078613,0.060059,1.099365,-4.954198,1.984733,0.183206
0.068604,0.060791,1.110840,-3.473282,0.938931,0.145038
0.082520,0.080322,1.085938,-1.374046,0.343511,0.488550
0.081543,0.067139,1.092773,-1.198473,0.564885,-0.328244
0.092529,0.062256,1.089355,-4.977099,0.625954,-1.099237
0.073486,0.066650,1.102051,-6.427481,1.068702,-1.091603
0.074707,0.069580,1.098145,-5.396946,0.442748,-0.938931
0.065186,0.080811,1.097656,-3.900763,-0.038168,0.022901
0.077637,0.071533,1.099365,-3.717557,2.114504,0.358779
0.080566,0.066650,1.100830,-6.618320,1.625954,-0.603053
0.081055,0.063232,1.101318,-6.725191,0.809160,-0.549618
0.072510,0.088867,1.093506,-4.992366,0.618321,-0.038168
0.065674,0.079346,1.100586,-2.297710,1.312977,0.343511
0.075195,0.072510,1.099854,-2.862595,0.236641,0.740458
0.087891,0.058594,1.109375,-5.122138,1.572519,-0.305344
0.073242,0.077393,1.082764,-5.954198,0.732824,-1.175573
0.064697,0.072266,1.090576,-5.679389,0.183206,-0.793893
0.073486,0.068848,1.090576,-6.816794,1.824427,-0.435115
0.072754,0.073975,1.088623,-9.198473,2.977099,0.396947
0.065430,0.067871,1.093506,-9.320611,3.755725,1.083969
0.070068,0.059570,1.094482,-7.320611,4.854962,0.961832
0.080566,0.059814,1.114746,-6.648855,2.908397,-0.145038
0.089600,0.061279,1.108398,-6.244275,0.717557,-0.656489
0.079834,0.057129,1.113281,-5.351145,0.954198,-1.404580
0.065430,0.057373,1.107910,-2.557252,1.129771,-1.740458
0.072754,0.067871,1.076416,-3.900763,0.412214,-1.519084
0.061523,0.066406,1.076172,-6.099236,1.030534,-0.358779
0.060059,0.060059,1.079102,-10.259542,1.244275,0.351145
0.061768,0.053711,1.090088,-11.435115,3.442748,0.450382
0.065186,0.048584,1.096680,-12.244275,4.244275,0.809160
0.058594,0.050781,1.106201,-11.534351,3.290076,0.923664
0.054443,0.062744,1.114258,-8.618320,3.374046,1.885496
0.072998,0.050293,1.120117,-4.946565,1.618321,1.694656
0.078613,0.050049,1.116699,-1.702290,1.984733,0.458015
0.071045,0.047363,1.109619,-2.221374,1.137405,-0.290076
0.072998,0.057861,1.103516,-1.419847,0.854962,-1.610687
0.066650,0.052490,1.097656,-2.053435,0.465649,-2.732824
0.063477,0.055420,1.085205,-3.213740,0.076336,-3.038168
0.053467,0.051758,1.100830,-3.847328,-0.160305,-2.870229
0.073975,0.048340,1.087646,-4.931298,1.099237,-3.427481
0.072998,0.045898,1.091553,-6.167939,1.908397,-4.572519
0.049316,0.065674,1.091553,-5.488550,2.549618,-4.778626
0.039307,0.062256,1.097168,-5.221374,2.435115,-2.435115
0.047119,0.060547,1.080566,-8.427481,0.038168,-1.244275
0.056396,0.057617,1.090820,-6.839694,2.251908,-1.015267
0.044434,0.063477,1.124756,-4.809160,4.183206,0.312977
0.043701,0.048340,1.095947,-8.106871,2.503817,1.694656
0.044678,0.054688,1.087158,-5.068702,6.587786,2.755725
0.035889,0.075684,1.096680,1.709924,13.236641,3.908397
0.033936,0.066895,1.084961,1.091603,11.687023,5.404580
0.041748,0.042480,1.103271,-6.190840,3.305344,4.229008
0.068604,0.044678,1.102539,-8.625955,1.381679,2.259542
0.068848,0.057373,1.116455,-2.534351,5.229008,0.778626
0.058350,0.058594,1.120850,-2.908397,0.977099,-0.206107
0.038574,0.069824,1.130859,-1.061069,-3.229008,-0.297710
0.044434,0.060303,1.107910,0.175573,-2.885496,0.267176
0.047852,0.045898,1.107178,-0.297710,0.206107,-0.259542
0.041016,0.060059,1.090088,-3.351145,-2.610687,-1.083969
0.039795,0.080566,1.068604,-4.282443,-2.404580,-0.061069
0.035645,0.064697,1.074951,-4.786260,-0.793893,0.862595
0.043701,0.059082,1.078125,-8.977099,1.465649,0.503817
0.044678,0.066650,1.089111,-10.106871,4.870229,0.496183
0.027344,0.052979,1.075195,-12.374045,2.786260,0.824427
0.039307,0.051270,1.085449,-13.603053,3.633588,0.557252
0.041260,0.057373,1.095459,-11.618320,9.435115,0.267176
0.041016,0.053955,1.148682,-11.824428,5.221374,0.473282
0.050293,0.045654,1.147217,-10.946565,-1.984733,1.213740
0.027100,0.039551,1.135742,-3.664122,-0.274809,1.442748
0.036621,0.047607,1.116943,0.694656,1.419847,1.015267
0.041504,0.042480,1.106934,0.343511,-1.770992,0.221374
0.040527,0.045654,1.089844,-0.053435,-1.625954,0.343511
0.038818,0.054199,1.090576,0.763359,3.030534,0.366412
0.054688,0.048584,1.095703,-1.175573,2.198473,-0.595420
0.035645,0.078857,1.080078,-2.587786,2.244275,-1.198473
0.015381,0.088379,1.093750,-2.274809,0.396947,1.244275
0.040283,0.061035,1.101563,-4.381680,-0.778626,3.557252
0.035400,0.032227,1.104736,-4.450382,1.480916,2.374046
0.043701,0.047607,1.114258,-4.328244,1.732824,1.114504
0.040527,0.053955,1.112061,-2.824427,2.114504,-0.106870
0.035156,0.057373,1.114014,-2.763359,-2.671756,-0.160305
0.043213,0.067139,1.097656,-0.129771,-0.977099,-0.320611
0.049316,0.063965,1.098877,-1.755725,1.519084,0.320611
0.035645,0.064941,1.090332,-2.534351,0.549618,-0.442748
0.035645,0.069092,1.090332,-4.404580,-3.381679,-0.633588
0.039307,0.071777,1.105713,-3.458015,-0.221374,-0.106870
0.042236,0.066895,1.102783,-3.534351,1.381679,0.832061
0.039307,0.060547,1.103027,-3.503817,2.000000,0.259542
0.036621,0.068359,1.087402,-3.755725,0.526718,-0.274809
0.034424,0.053223,1.105469,-3.938931,-0.152672,-1.183206
0.029541,0.071777,1.093018,-4.862596,2.603053,-1.068702
0.023193,0.071289,1.086670,-6.007634,1.328244,-0.335878
0.045898,0.075684,1.094727,-5.938931,0.198473,-0.435115
0.047607,0.075195,1.107666,-4.167939,0.641221,0.160305
0.045898,0.067627,1.087646,-5.908397,0.709924,-0.160305
0.027588,0.060791,1.100830,-5.229008,1.992366,-0.786260
0.031982,0.063721,1.106934,-5.076336,-0.862595,-0.152672
0.041016,0.072266,1.096191,-3.725191,1.969466,-0.770992
0.032227,0.075928,1.098633,-4.251908,0.328244,-0.442748
0.042480,0.072510,1.090088,-4.801527,0.396947,-0.206107
0.035889,0.061768,1.102539,-4.389313,1.404580,-0.389313
0.033447,0.067871,1.100830,-4.801527,0.870229,-0.816794
0.029785,0.069580,1.094971,-5.435114,0.183206,-0.458015
0.032227,0.076660,1.093262,-4.969466,2.435115,-0.412214
0.036133,0.070068,1.108154,-6.717557,-0.396947,0.221374
0.030762,0.062256,1.097412,-3.793893,2.068702,-0.099237
0.029541,0.068848,1.107910,-6.030534,-0.595420,-0.022901
0.036377,0.064209,1.109131,-4.442748,0.648855,-0.526718
0.041504,0.076660,1.093506,-4.648855,1.778626,-0.564885
0.044434,0.065186,1.095215,-4.526718,1.167939,-0.870229
0.028320,0.062256,1.100830,-5.206107,-0.244275,-0.442748
0.044678,0.070068,1.104248,-3.671756,1.458015,0.213740
0.036865,0.056641,1.102783,-4.595420,0.610687,0.000000
0.032715,0.067383,1.084473,-4.511450,1.656489,-0.564885
0.023193,0.075684,1.080078,-5.870229,0.396947,0.129771
0.035645,0.069824,1.098877,-6.526718,0.969466,1.465649
0.041016,0.054199,1.113770,-6.465649,2.694656,1.145038
0.033936,0.064453,1.116211,-6.557252,2.290076,0.442748
0.028076,0.055420,1.097656,-6.015267,1.129771,-0.435115
0.026855,0.062744,1.090332,-7.877862,1.137405,-0.618321
0.026367,0.064209,1.105225,-6.763359,3.541985,-0.198473
0.023926,0.058350,1.120605,-4.900764,1.297710,0.137405
0.045166,0.060791,1.106934,-3.931298,0.862595,-0.473282
0.021729,0.061279,1.096680,-4.885496,1.030534,-0.274809
0.039551,0.068359,1.110352,-4.618320,0.496183,-0.343511
0.038330,0.069092,1.099609,-3.969466,0.755725,-0.503817
0.035889,0.064697,1.110840,-3.290076,0.931298,-0.511450
0.029541,0.062012,1.107422,-1.473282,0.740458,-0.595420
0.015869,0.065186,1.100098,-2.900763,-0.809160,-0.503817
0.023682,0.057373,1.076416,-4.862596,1.206107,-0.389313
0.019775,0.065186,1.083984,-6.893130,5.312977,-0.389313
0.026855,0.079590,1.115967,-6.328244,2.267176,0.725191
0.036133,0.077637,1.123291,-4.610687,-0.809160,1.763359
0.041504,0.063721,1.128906,-2.832061,-0.442748,1.320611
0.029053,0.065430,1.101807,-3.366412,-1.282443,0.854962
0.029541,0.062500,1.104248,-1.320611,0.954198,0.664122
0.033691,0.065674,1.099365,-2.091603,-1.587786,-0.480916
0.032715,0.070313,1.090576,-1.687023,0.534351,-1.465649
0.036865,0.080811,1.101807,-1.572519,1.519084,-1.526718
0.014893,0.077393,1.113525,-2.793893,-1.366412,-0.618321
0.024902,0.063477,1.101318,-1.755725,0.312977,0.167939
0.035400,0.052002,1.108398,-2.160305,1.045802,-0.923664
0.033691,0.072266,1.102539,-2.977099,-0.061069,-2.045802
0.031738,0.077393,1.101074,-1.923664,-0.068702,-2.114504
0.029541,0.087158,1.094482,-2.122137,-1.366412,-1.389313
0.035400,0.091309,1.089844,-0.763359,0.603053,-1.206107
0.029785,0.092041,1.108643,-0.702290,-0.687023,-0.221374
0.032471,0.086182,1.095459,-0.587786,-0.770992,-0.267176
0.041260,0.085449,1.094238,-0.709924,0.015267,-0.916031
